[{"index_id": 0, "dataset": "AE", "variable": "STUDYID", "label": "Study Identifier", "core": "Req", "variable_type": "C", "role": "Identifier", "dataset_level": "Corporate", "embedding_text": "ae domain ; study identifier ; variable studyid ; unique identifier for a study."}, {"index_id": 1, "dataset": "AE", "variable": "DOMAIN", "label": "Domain Abbreviation", "core": "Req", "variable_type": "C", "role": "Identifier", "dataset_level": "Corporate", "embedding_text": "ae domain ; domain abbreviation ; variable domain ; two-character abbreviation for the domain."}, {"index_id": 2, "dataset": "AE", "variable": "USUBJID", "label": "Unique Subject Identifier", "core": "Req", "variable_type": "C", "role": "Identifier", "dataset_level": "Corporate", "embedding_text": "ae domain ; unique subject identifier ; variable usubjid ; identifier used to uniquely identify a subject across all studies for all applications or submissions involving the prod"}, {"index_id": 3, "dataset": "AE", "variable": "SPDEVID", "label": "Sponsor Device Identifier", "core": "Perm", "variable_type": "C", "role": "Identifier", "dataset_level": "Corporate", "embedding_text": "ae domain ; sponsor device identifier ; variable spdevid ; a sequence of characters used by the sponsor to uniquely identify a specific device. used to represent a device associat"}, {"index_id": 4, "dataset": "AE", "variable": "AESEQ", "label": "Sequence Number", "core": "Req", "variable_type": "N", "role": "Identifier", "dataset_level": "Corporate", "embedding_text": "ae domain ; sequence number ; variable aeseq ; sequence number given to ensure uniqueness of subject records within a domain. may be any valid number."}, {"index_id": 5, "dataset": "AE", "variable": "AEGRPID", "label": "Group ID", "core": "Perm", "variable_type": "C", "role": "Identifier", "dataset_level": "Corporate", "embedding_text": "ae domain ; group id ; variable aegrpid ; used to tie together a block of related records in a single domain for a subject."}, {"index_id": 6, "dataset": "AE", "variable": "AEREFID", "label": "Reference ID", "core": "Perm", "variable_type": "C", "role": "Identifier", "dataset_level": "Corporate", "embedding_text": "ae domain ; reference id ; variable aerefid ; internal or external identifier such as a serial number on an sae reporting form."}, {"index_id": 7, "dataset": "AE", "variable": "AESPID", "label": "Sponsor-Defined Identifier", "core": "Perm", "variable_type": "C", "role": "Identifier", "dataset_level": "Corporate", "embedding_text": "ae domain ; sponsor-defined identifier ; variable aespid ; sponsor-defined identifier. it may be preprinted on the crf as an explicit line identifier or defined in the sponsor's o"}, {"index_id": 8, "dataset": "AE", "variable": "AELNKID", "label": "Link ID", "core": "Perm", "variable_type": "C", "role": "Identifier", "dataset_level": "Corporate", "embedding_text": "ae domain ; link id ; variable aelnkid ; identifier used to link related records across domains. this may be a one-to-one or a one-to-many relationship. for exam"}, {"index_id": 9, "dataset": "AE", "variable": "AELNKGRP", "label": "Link Group ID", "core": "Perm", "variable_type": "C", "role": "Identifier", "dataset_level": "Corporate", "embedding_text": "ae domain ; link group id ; variable aelnkgrp ; identifier used to link related records across domains. this will usually be a many-to-one relationship. for example, mu"}, {"index_id": 10, "dataset": "AE", "variable": "AETERM", "label": "Reported Term for the Adverse Event", "core": "Req", "variable_type": "C", "role": "Topic", "dataset_level": "Corporate", "embedding_text": "ae domain ; reported term for the adverse event ; variable aeterm ; verbatim name of the event."}, {"index_id": 11, "dataset": "AE", "variable": "AEMODIFY", "label": "Modified Reported Term", "core": "Perm", "variable_type": "C", "role": "Synonym Qualifier", "dataset_level": "Corporate", "embedding_text": "ae domain ; modified reported term ; variable aemodify ; if aeterm is modified to facilitate coding, then aemodify will contain the modified text."}, {"index_id": 12, "dataset": "AE", "variable": "AELLT", "label": "Lowest Level Term", "core": "Exp", "variable_type": "C", "role": "Variable Qualifier", "dataset_level": "Corporate", "embedding_text": "ae domain ; lowest level term ; variable aellt ; dictionary-derived text description of the lowest level term."}, {"index_id": 13, "dataset": "AE", "variable": "AELLTCD", "label": "Lowest Level Term Code", "core": "Exp", "variable_type": "N", "role": "Variable Qualifier", "dataset_level": "Corporate", "embedding_text": "ae domain ; lowest level term code ; variable aelltcd ; dictionary-derived code for the lowest level term."}, {"index_id": 14, "dataset": "AE", "variable": "AEDECOD", "label": "Dictionary-Derived Term", "core": "Req", "variable_type": "C", "role": "Synonym Qualifier", "dataset_level": "Corporate", "embedding_text": "ae domain ; dictionary-derived term ; variable aedecod ; dictionary-derived text description of aeterm or aemodify. equivalent to the preferred term (pt in meddra). the sponsor"}, {"index_id": 15, "dataset": "AE", "variable": "AEPTCD", "label": "Preferred Term Code", "core": "Exp", "variable_type": "N", "role": "Variable Qualifier", "dataset_level": "Corporate", "embedding_text": "ae domain ; preferred term code ; variable aeptcd ; dictionary-derived code for the preferred term."}, {"index_id": 16, "dataset": "AE", "variable": "AEHLT", "label": "High Level Term", "core": "Exp", "variable_type": "C", "role": "Variable Qualifier", "dataset_level": "Corporate", "embedding_text": "ae domain ; high level term ; variable aehlt ; dictionary-derived text description of the high level term for the primary system organ class (soc)."}, {"index_id": 17, "dataset": "AE", "variable": "AEHLTCD", "label": "High Level Term Code", "core": "Exp", "variable_type": "N", "role": "Variable Qualifier", "dataset_level": "Corporate", "embedding_text": "ae domain ; high level term code ; variable aehltcd ; dictionary-derived code for the high level term for the primary soc."}, {"index_id": 18, "dataset": "AE", "variable": "AEHLGT", "label": "High Level Group Term", "core": "Exp", "variable_type": "C", "role": "Variable Qualifier", "dataset_level": "Corporate", "embedding_text": "ae domain ; high level group term ; variable aehlgt ; dictionary-derived text description of the high level group term for the primary soc."}, {"index_id": 19, "dataset": "AE", "variable": "AEHLGTCD", "label": "High Level Group Term Code", "core": "Exp", "variable_type": "N", "role": "Variable Qualifier", "dataset_level": "Corporate", "embedding_text": "ae domain ; high level group term code ; variable aehlgtcd ; dictionary-derived code for the high level group term for the primary soc."}, {"index_id": 20, "dataset": "AE", "variable": "AECAT", "label": "Category for Adverse Event", "core": "Perm", "variable_type": "C", "role": "Grouping Qualifier", "dataset_level": "Corporate", "embedding_text": "ae domain ; category for adverse event ; variable aecat ; used to define a category of related records. examples: \"bleeding\", \"neuropsychiatric\"."}, {"index_id": 21, "dataset": "AE", "variable": "AESCAT", "label": "Subcategory for Adverse Event", "core": "Perm", "variable_type": "C", "role": "Grouping Qualifier", "dataset_level": "Corporate", "embedding_text": "ae domain ; subcategory for adverse event ; variable aescat ; a further categorization of adverse event. example: \"neurologic\"."}, {"index_id": 22, "dataset": "AE", "variable": "AEPRESP", "label": "Pre-Specified Adverse Event", "core": "Perm", "variable_type": "C", "role": "Variable Qualifier", "dataset_level": "Corporate", "embedding_text": "ae domain ; pre-specified adverse event ; variable aepresp ; a value of \"y\" indicates that this adverse event was prespecified on the crf. values are null for spontaneously reported"}, {"index_id": 23, "dataset": "AE", "variable": "AEBODSYS", "label": "Body System or Organ Class", "core": "Exp", "variable_type": "C", "role": "Record Qualifier", "dataset_level": "Corporate", "embedding_text": "ae domain ; body system or organ class ; variable aebodsys ; dictionary derived. body system or organ class used by the sponsor from the coding dictionary (e.g., meddra). when using"}, {"index_id": 24, "dataset": "AE", "variable": "AEBDSYCD", "label": "Body System or Organ Class Code", "core": "Exp", "variable_type": "N", "role": "Variable Qualifier", "dataset_level": "Corporate", "embedding_text": "ae domain ; body system or organ class code ; variable aebdsycd ; dictionary derived. code for the body system or organ class used by the sponsor. when using a multi-axial dictionary suc"}, {"index_id": 25, "dataset": "AE", "variable": "AESOC", "label": "Primary System Organ Class", "core": "Exp", "variable_type": "C", "role": "Variable Qualifier", "dataset_level": "Corporate", "embedding_text": "ae domain ; primary system organ class ; variable aesoc ; dictionary-derived text description of the primary soc. will be the same as aebodsys if the primary soc was used for ana"}, {"index_id": 26, "dataset": "AE", "variable": "AESOCCD", "label": "Primary System Organ Class Code", "core": "Exp", "variable_type": "N", "role": "Variable Qualifier", "dataset_level": "Corporate", "embedding_text": "ae domain ; primary system organ class code ; variable aesoccd ; dictionary-derived code for the primary soc. will be the same as aebdsycd if the primary soc was used for analysis."}, {"index_id": 27, "dataset": "AE", "variable": "AELOC", "label": "Location of Event", "core": "Perm", "variable_type": "C", "role": "Record Qualifier", "dataset_level": "Corporate", "embedding_text": "ae domain ; location of event ; variable aeloc ; describes anatomical location relevant for the event (e.g., \"arm\" for skin rash)."}, {"index_id": 28, "dataset": "AE", "variable": "AESEV", "label": "Severity/Intensity", "core": "Perm", "variable_type": "C", "role": "Record Qualifier", "dataset_level": "Corporate", "embedding_text": "ae domain ; severity/intensity ; variable aesev ; the severity or intensity of the event. examples: \"mild\", \"moderate\", \"severe\"."}, {"index_id": 29, "dataset": "AE", "variable": "AESER", "label": "Serious Event", "core": "Exp", "variable_type": "C", "role": "Record Qualifier", "dataset_level": "Corporate", "embedding_text": "ae domain ; serious event ; variable aeser ; is this a serious event? valid values are \"y\" and \"n\"."}, {"index_id": 30, "dataset": "AE", "variable": "AEACN", "label": "Action Taken with Study Treatment", "core": "Exp", "variable_type": "C", "role": "Record Qualifier", "dataset_level": "Corporate", "embedding_text": "ae domain ; action taken with study treatment ; variable aeacn ; describes changes to the study treatment as a result of the event. aeacn is specifically for the relationship to study t"}, {"index_id": 31, "dataset": "AE", "variable": "AEACNOTH", "label": "Other Action Taken", "core": "Perm", "variable_type": "C", "role": "Record Qualifier", "dataset_level": "Corporate", "embedding_text": "ae domain ; other action taken ; variable aeacnoth ; describes other actions taken as a result of the event that are unrelated to dose adjustments of study treatment. usuall"}, {"index_id": 32, "dataset": "AE", "variable": "AEACNDEV", "label": "Action Taken with Device", "core": "Perm", "variable_type": "C", "role": "Record Qualifier", "dataset_level": "Corporate", "embedding_text": "ae domain ; action taken with device ; variable aeacndev ; an action taken with a device as the result of the event. the device may or may not be a device under study."}, {"index_id": 33, "dataset": "AE", "variable": "AEREL", "label": "Causality", "core": "Exp", "variable_type": "C", "role": "Record Qualifier", "dataset_level": "Corporate", "embedding_text": "ae domain ; causality ; variable aerel ; records the investigator's opinion as to the causality of the event to the treatment. ich does not establish any require"}, {"index_id": 34, "dataset": "AE", "variable": "AERLDEV", "label": "Relationship of Event to Device", "core": "Perm", "variable_type": "C", "role": "Record Qualifier", "dataset_level": "Corporate", "embedding_text": "ae domain ; relationship of event to device ; variable aerldev ; a judgment as to the likelihood that the device caused the adverse event. the relationship is to a device identified in"}, {"index_id": 35, "dataset": "AE", "variable": "AERELNST", "label": "Relationship to Non-Study Treatment", "core": "Perm", "variable_type": "C", "role": "Record Qualifier", "dataset_level": "Corporate", "embedding_text": "ae domain ; relationship to non-study treatment ; variable aerelnst ; records the investigator's opinion as to whether the event may have been due to a treatment other than study drug. may b"}, {"index_id": 36, "dataset": "AE", "variable": "AEPATT", "label": "Pattern of Adverse Event", "core": "Perm", "variable_type": "C", "role": "Record Qualifier", "dataset_level": "Corporate", "embedding_text": "ae domain ; pattern of adverse event ; variable aepatt ; used to indicate the pattern of the event over time. examples: \"intermittent\", \"continuous\", \"single event\"."}, {"index_id": 37, "dataset": "AE", "variable": "AEOUT", "label": "Outcome of Adverse Event", "core": "Perm", "variable_type": "C", "role": "Record Qualifier", "dataset_level": "Corporate", "embedding_text": "ae domain ; outcome of adverse event ; variable aeout ; description of the outcome of an event."}, {"index_id": 38, "dataset": "AE", "variable": "AESCAN", "label": "Involves Cancer", "core": "Perm", "variable_type": "C", "role": "Record Qualifier", "dataset_level": "Corporate", "embedding_text": "ae domain ; involves cancer ; variable aescan ; was the serious event associated with the development of cancer? valid values are \"y\" and \"n\". this is a legacy seriousn"}, {"index_id": 39, "dataset": "AE", "variable": "AESCONG", "label": "Congenital Anomaly or Birth Defect", "core": "Perm", "variable_type": "C", "role": "Record Qualifier", "dataset_level": "Corporate", "embedding_text": "ae domain ; congenital anomaly or birth defect ; variable aescong ; was the serious event associated with congenital anomaly or birth defect? valid values are \"y\" and \"n\"."}, {"index_id": 40, "dataset": "AE", "variable": "AESDISAB", "label": "Persist or Signif Disability/Incapacity", "core": "Perm", "variable_type": "C", "role": "Record Qualifier", "dataset_level": "Corporate", "embedding_text": "ae domain ; persist or signif disability/incapacity ; variable aesdisab ; did the serious event result in persistent or significant disability/incapacity? valid values are \"y\" and \"n\"."}, {"index_id": 41, "dataset": "AE", "variable": "AESDTH", "label": "Results in Death", "core": "Perm", "variable_type": "C", "role": "Record Qualifier", "dataset_level": "Corporate", "embedding_text": "ae domain ; results in death ; variable aesdth ; did the serious event result in death? valid values are \"y\" and \"n\"."}, {"index_id": 42, "dataset": "AE", "variable": "AESHOSP", "label": "Requires or Prolongs Hospitalization", "core": "Perm", "variable_type": "C", "role": "Record Qualifier", "dataset_level": "Corporate", "embedding_text": "ae domain ; requires or prolongs hospitalization ; variable aeshosp ; did the serious event require or prolong hospitalization? valid values are \"y\" and \"n\"."}, {"index_id": 43, "dataset": "AE", "variable": "AESLIFE", "label": "Is Life Threatening", "core": "Perm", "variable_type": "C", "role": "Record Qualifier", "dataset_level": "Corporate", "embedding_text": "ae domain ; is life threatening ; variable aeslife ; was the serious event life-threatening? valid values are \"y\" and \"n\"."}, {"index_id": 44, "dataset": "AE", "variable": "AESOD", "label": "Occurred with Overdose", "core": "Perm", "variable_type": "C", "role": "Record Qualifier", "dataset_level": "Corporate", "embedding_text": "ae domain ; occurred with overdose ; variable aesod ; did the serious event occur with an overdose? valid values are \"y\" and \"n\". this is a legacy seriousness criterion. it i"}, {"index_id": 45, "dataset": "AE", "variable": "AESMIE", "label": "Other Medically Important Serious Event", "core": "Perm", "variable_type": "C", "role": "Record Qualifier", "dataset_level": "Corporate", "embedding_text": "ae domain ; other medically important serious event ; variable aesmie ; do additional categories for seriousness apply? valid values are \"y\" and \"n\"."}, {"index_id": 46, "dataset": "AE", "variable": "AESINTV", "label": "Needs Intervention to Prevent Impairment", "core": "Perm", "variable_type": "C", "role": "Record Qualifier", "dataset_level": "Corporate", "embedding_text": "ae domain ; needs intervention to prevent impairment ; variable aesintv ; records whether medical or surgical intervention was necessary to preclude permanent impairment of a body function, or t"}, {"index_id": 47, "dataset": "AE", "variable": "AEUNANT", "label": "Unanticipated Adverse Device Effect", "core": "Perm", "variable_type": "C", "role": "Record Qualifier", "dataset_level": "Corporate", "embedding_text": "ae domain ; unanticipated adverse device effect ; variable aeunant ; any serious adverse effect on health or safety or any life-threatening problem or death caused by or associated with a d"}, {"index_id": 48, "dataset": "AE", "variable": "AERLPRT", "label": "Rel of AE to Non-Dev-Rel Study Activity", "core": "Perm", "variable_type": "C", "role": "Record Qualifier", "dataset_level": "Corporate", "embedding_text": "ae domain ; rel of ae to non-dev-rel study activity ; variable aerlprt ; the investigator's opinion as to the causality of the event as related to other protocol-required activities, actions, o"}, {"index_id": 49, "dataset": "AE", "variable": "AERLPRC", "label": "Rel of AE to Device-Related Procedure", "core": "Perm", "variable_type": "C", "role": "Record Qualifier", "dataset_level": "Corporate", "embedding_text": "ae domain ; rel of ae to device-related procedure ; variable aerlprc ; the investigator's opinion as to the likelihood that the device-related study procedure (e.g., implant/insertion, revisi"}, {"index_id": 50, "dataset": "AE", "variable": "AECONTRT", "label": "Concomitant or Additional Trtmnt Given", "core": "Perm", "variable_type": "C", "role": "Record Qualifier", "dataset_level": "Corporate", "embedding_text": "ae domain ; concomitant or additional trtmnt given ; variable aecontrt ; was another treatment given because of the occurrence of the event? valid values are \"y\" and \"n\"."}, {"index_id": 51, "dataset": "AE", "variable": "AETOXGR", "label": "Standard Toxicity Grade", "core": "Perm", "variable_type": "C", "role": "Record Qualifier", "dataset_level": "Corporate", "embedding_text": "ae domain ; standard toxicity grade ; variable aetoxgr ; toxicity grade according to a standard toxicity scale (e.g., common terminology criteria for adverse events, ctcae). spo"}, {"index_id": 52, "dataset": "AE", "variable": "TAETORD", "label": "Planned Order of Element within Arm", "core": "Perm", "variable_type": "N", "role": "Timing", "dataset_level": "Corporate", "embedding_text": "ae domain ; planned order of element within arm ; variable taetord ; number that gives the planned order of the element within the arm."}, {"index_id": 53, "dataset": "AE", "variable": "EPOCH", "label": "Epoch", "core": "Perm", "variable_type": "C", "role": "Timing", "dataset_level": "Corporate", "embedding_text": "ae domain ; epoch ; variable epoch ; epoch associated with the start date/time of the adverse event. examples: \"screening\", \"treatment\", \"follow-up\"."}, {"index_id": 54, "dataset": "AE", "variable": "AESTDTC", "label": "Start Date/Time of Adverse Event", "core": "Exp", "variable_type": "C", "role": "Timing", "dataset_level": "Corporate", "embedding_text": "ae domain ; start date/time of adverse event ; variable aestdtc ; start date/time of the adverse event represented in iso 8601 character format."}, {"index_id": 55, "dataset": "AE", "variable": "AEENDTC", "label": "End Date/Time of Adverse Event", "core": "Exp", "variable_type": "C", "role": "Timing", "dataset_level": "Corporate", "embedding_text": "ae domain ; end date/time of adverse event ; variable aeendtc ; end date/time of the adverse event represented in iso 8601 character format."}, {"index_id": 56, "dataset": "AE", "variable": "AESTDY", "label": "Study Day of Start of Adverse Event", "core": "Perm", "variable_type": "N", "role": "Timing", "dataset_level": "Corporate", "embedding_text": "ae domain ; study day of start of adverse event ; variable aestdy ; study day of start of adverse event relative to the sponsor-defined rfstdtc."}, {"index_id": 57, "dataset": "AE", "variable": "AEENDY", "label": "Study Day of End of Adverse Event", "core": "Perm", "variable_type": "N", "role": "Timing", "dataset_level": "Corporate", "embedding_text": "ae domain ; study day of end of adverse event ; variable aeendy ; study day of end of event relative to the sponsor-defined rfstdtc."}, {"index_id": 58, "dataset": "AE", "variable": "AEDUR", "label": "Duration of Adverse Event", "core": "Perm", "variable_type": "C", "role": "Timing", "dataset_level": "Corporate", "embedding_text": "ae domain ; duration of adverse event ; variable aedur ; collected duration and unit of an adverse event. used only if collected on the crf and not derived from start and end da"}, {"index_id": 59, "dataset": "AE", "variable": "AESTRF", "label": "Start Relative to Reference Period", "core": "Perm", "variable_type": "C", "role": "Timing", "dataset_level": "Corporate", "embedding_text": "ae domain ; start relative to reference period ; variable aestrf ; identifies the start of the observation as being before, during, or after the sponsor-defined reference period. the spon"}, {"index_id": 60, "dataset": "AE", "variable": "AEENRF", "label": "End Relative to Reference Period", "core": "Perm", "variable_type": "C", "role": "Timing", "dataset_level": "Corporate", "embedding_text": "ae domain ; end relative to reference period ; variable aeenrf ; describes the end of the event relative to the sponsor-defined reference period. the sponsor-defined reference period is"}, {"index_id": 61, "dataset": "AE", "variable": "AEENRTPT", "label": "End Relative to Reference Time Point", "core": "Perm", "variable_type": "C", "role": "Timing", "dataset_level": "Corporate", "embedding_text": "ae domain ; end relative to reference time point ; variable aeenrtpt ; identifies the end of the event as being before or after the reference time point defined by variable aeentpt. \\n not al"}, {"index_id": 62, "dataset": "AE", "variable": "AEENTPT", "label": "End Reference Time Point", "core": "Perm", "variable_type": "C", "role": "Timing", "dataset_level": "Corporate", "embedding_text": "ae domain ; end reference time point ; variable aeentpt ; description of date/time in iso 8601 character format of the reference point referred to by aeenrtpt. examples: \"2003-12"}, {"index_id": 63, "dataset": "AE", "variable": "AD", "label": "Additional Drug", "core": "Supp", "variable_type": "C", "role": "", "dataset_level": "Corporate", "embedding_text": "ae domain ; additional drug ; variable ad"}, {"index_id": 64, "dataset": "AE", "variable": "AD1", "label": "Additional Drug 1", "core": "Supp", "variable_type": "C", "role": "", "dataset_level": "Corporate", "embedding_text": "ae domain ; additional drug 1 ; variable ad1"}, {"index_id": 65, "dataset": "AE", "variable": "AEACN1", "label": "Action Taken, Investigational Product 1", "core": "Supp", "variable_type": "C", "role": "", "dataset_level": "Corporate", "embedding_text": "ae domain ; action taken, investigational product 1 ; variable aeacn1"}, {"index_id": 66, "dataset": "AE", "variable": "AEACNAD", "label": "Action Taken, Additional Drug", "core": "Supp", "variable_type": "C", "role": "", "dataset_level": "Corporate", "embedding_text": "ae domain ; action taken, additional drug ; variable aeacnad"}, {"index_id": 67, "dataset": "AE", "variable": "AEACNAD1", "label": "Action Taken, Additional Drug 1", "core": "Supp", "variable_type": "C", "role": "", "dataset_level": "Corporate", "embedding_text": "ae domain ; action taken, additional drug 1 ; variable aeacnad1"}, {"index_id": 68, "dataset": "AE", "variable": "AECAAD", "label": "Causality to Additional Drug", "core": "Supp", "variable_type": "C", "role": "", "dataset_level": "Corporate", "embedding_text": "ae domain ; causality to additional drug ; variable aecaad"}, {"index_id": 69, "dataset": "AE", "variable": "AECAAD1", "label": "Causality to Additional Drug 1", "core": "Supp", "variable_type": "C", "role": "", "dataset_level": "Corporate", "embedding_text": "ae domain ; causality to additional drug 1 ; variable aecaad1"}, {"index_id": 70, "dataset": "AE", "variable": "AEDESC", "label": "AE Description", "core": "Supp", "variable_type": "C", "role": "", "dataset_level": "Corporate", "embedding_text": "ae domain ; ae description ; variable aedesc"}, {"index_id": 71, "dataset": "AE", "variable": "AEDESC1", "label": "AE Description", "core": "Supp", "variable_type": "C", "role": "", "dataset_level": "Corporate", "embedding_text": "ae domain ; ae description ; variable aedesc1"}, {"index_id": 72, "dataset": "AE", "variable": "AEDESC2", "label": "AE Description", "core": "Supp", "variable_type": "C", "role": "", "dataset_level": "Corporate", "embedding_text": "ae domain ; ae description ; variable aedesc2"}, {"index_id": 73, "dataset": "AE", "variable": "AEDESC3", "label": "AE Description", "core": "Supp", "variable_type": "C", "role": "", "dataset_level": "Corporate", "embedding_text": "ae domain ; ae description ; variable aedesc3"}, {"index_id": 74, "dataset": "AE", "variable": "AEDESC4", "label": "AE Description", "core": "Supp", "variable_type": "C", "role": "", "dataset_level": "Corporate", "embedding_text": "ae domain ; ae description ; variable aedesc4"}, {"index_id": 75, "dataset": "AE", "variable": "AEDESC5", "label": "AE Description", "core": "Supp", "variable_type": "C", "role": "", "dataset_level": "Corporate", "embedding_text": "ae domain ; ae description ; variable aedesc5"}, {"index_id": 76, "dataset": "AE", "variable": "AEDESC6", "label": "AE Description", "core": "Supp", "variable_type": "C", "role": "", "dataset_level": "Corporate", "embedding_text": "ae domain ; ae description ; variable aedesc6"}, {"index_id": 77, "dataset": "AE", "variable": "AEDESC7", "label": "AE Description", "core": "Supp", "variable_type": "C", "role": "", "dataset_level": "Corporate", "embedding_text": "ae domain ; ae description ; variable aedesc7"}, {"index_id": 78, "dataset": "AE", "variable": "AEDESC8", "label": "AE Description", "core": "Supp", "variable_type": "C", "role": "", "dataset_level": "Corporate", "embedding_text": "ae domain ; ae description ; variable aedesc8"}, {"index_id": 79, "dataset": "AE", "variable": "AEDESC9", "label": "AE Description", "core": "Supp", "variable_type": "C", "role": "", "dataset_level": "Corporate", "embedding_text": "ae domain ; ae description ; variable aedesc9"}, {"index_id": 80, "dataset": "AE", "variable": "AEDLT", "label": "Dose Limiting Toxicity", "core": "Supp", "variable_type": "C", "role": "", "dataset_level": "Corporate", "embedding_text": "ae domain ; dose limiting toxicity ; variable aedlt"}, {"index_id": 81, "dataset": "AE", "variable": "AEDREL", "label": "Reasonable Possibility AE Caus by Device", "core": "Supp", "variable_type": "C", "role": "", "dataset_level": "Corporate", "embedding_text": "ae domain ; reasonable possibility ae caus by device ; variable aedrel"}, {"index_id": 82, "dataset": "AE", "variable": "AEDSRESL", "label": "AE Related to Disease Under Study", "core": "Supp", "variable_type": "C", "role": "", "dataset_level": "Corporate", "embedding_text": "ae domain ; ae related to disease under study ; variable aedsresl"}, {"index_id": 83, "dataset": "AE", "variable": "AEEVADJ", "label": "Event to be Adjudicated", "core": "Supp", "variable_type": "C", "role": "", "dataset_level": "Corporate", "embedding_text": "ae domain ; event to be adjudicated ; variable aeevadj"}, {"index_id": 84, "dataset": "AE", "variable": "AEITOXGR", "label": "Maximum IWCLL Grade", "core": "Supp", "variable_type": "C", "role": "", "dataset_level": "Corporate", "embedding_text": "ae domain ; maximum iwcll grade ; variable aeitoxgr"}, {"index_id": 85, "dataset": "AE", "variable": "AEMAAE", "label": "AE Medically Attended", "core": "Supp", "variable_type": "C", "role": "", "dataset_level": "Corporate", "embedding_text": "ae domain ; ae medically attended ; variable aemaae"}, {"index_id": 86, "dataset": "AE", "variable": "AEONSDIP", "label": "AE Onset Status on Day of IP Admin", "core": "Supp", "variable_type": "C", "role": "", "dataset_level": "Corporate", "embedding_text": "ae domain ; ae onset status on day of ip admin ; variable aeonsdip"}, {"index_id": 87, "dataset": "AE", "variable": "AEPROSSP", "label": "Provoked by Specific Study Procedure", "core": "Supp", "variable_type": "C", "role": "", "dataset_level": "Corporate", "embedding_text": "ae domain ; provoked by specific study procedure ; variable aeprossp"}, {"index_id": 88, "dataset": "AE", "variable": "AEPRR", "label": "AE Required Procedure", "core": "Supp", "variable_type": "C", "role": "", "dataset_level": "Corporate", "embedding_text": "ae domain ; ae required procedure ; variable aeprr"}, {"index_id": 89, "dataset": "AE", "variable": "AEREL1", "label": "Causality to IP 1", "core": "Supp", "variable_type": "C", "role": "", "dataset_level": "Corporate", "embedding_text": "ae domain ; causality to ip 1 ; variable aerel1"}, {"index_id": 90, "dataset": "AE", "variable": "AESIDC01", "label": "AESI Description 01", "core": "Supp", "variable_type": "C", "role": "", "dataset_level": "Corporate", "embedding_text": "ae domain ; aesi description 01 ; variable aesidc01"}, {"index_id": 91, "dataset": "AE", "variable": "AESIDC02", "label": "AESI Description 02", "core": "Supp", "variable_type": "C", "role": "", "dataset_level": "Corporate", "embedding_text": "ae domain ; aesi description 02 ; variable aesidc02"}, {"index_id": 92, "dataset": "AE", "variable": "AESIDC03", "label": "AESI Description 03", "core": "Supp", "variable_type": "C", "role": "", "dataset_level": "Corporate", "embedding_text": "ae domain ; aesi description 03 ; variable aesidc03"}, {"index_id": 93, "dataset": "AE", "variable": "AESIDC04", "label": "AESI Description 04", "core": "Supp", "variable_type": "C", "role": "", "dataset_level": "Corporate", "embedding_text": "ae domain ; aesi description 04 ; variable aesidc04"}, {"index_id": 94, "dataset": "AE", "variable": "AESIDC05", "label": "AESI Description 05", "core": "Supp", "variable_type": "C", "role": "", "dataset_level": "Corporate", "embedding_text": "ae domain ; aesi description 05 ; variable aesidc05"}, {"index_id": 95, "dataset": "AE", "variable": "AESIDC06", "label": "AESI Description 06", "core": "Supp", "variable_type": "C", "role": "", "dataset_level": "Corporate", "embedding_text": "ae domain ; aesi description 06 ; variable aesidc06"}, {"index_id": 96, "dataset": "AE", "variable": "AESIDC07", "label": "AESI Description 07", "core": "Supp", "variable_type": "C", "role": "", "dataset_level": "Corporate", "embedding_text": "ae domain ; aesi description 07 ; variable aesidc07"}, {"index_id": 97, "dataset": "AE", "variable": "AESIDC08", "label": "AESI Description 08", "core": "Supp", "variable_type": "C", "role": "", "dataset_level": "Corporate", "embedding_text": "ae domain ; aesi description 08 ; variable aesidc08"}, {"index_id": 98, "dataset": "AE", "variable": "AESIDC09", "label": "AESI Description 09", "core": "Supp", "variable_type": "C", "role": "", "dataset_level": "Corporate", "embedding_text": "ae domain ; aesi description 09 ; variable aesidc09"}, {"index_id": 99, "dataset": "AE", "variable": "AESIDC10", "label": "AESI Description 10", "core": "Supp", "variable_type": "C", "role": "", "dataset_level": "Corporate", "embedding_text": "ae domain ; aesi description 10 ; variable aesidc10"}, {"index_id": 100, "dataset": "AE", "variable": "AETRTEM", "label": "Treatment Emergent Flag", "core": "Supp", "variable_type": "C", "role": "", "dataset_level": "Corporate", "embedding_text": "ae domain ; treatment emergent flag ; variable aetrtem"}, {"index_id": 101, "dataset": "AE", "variable": "AEWD", "label": "AE Caused Subject to Withdraw from Study", "core": "Supp", "variable_type": "C", "role": "", "dataset_level": "Corporate", "embedding_text": "ae domain ; ae caused subject to withdraw from study ; variable aewd"}, {"index_id": 102, "dataset": "AE", "variable": "CTC", "label": "CTC Version", "core": "Supp", "variable_type": "C", "role": "", "dataset_level": "Corporate", "embedding_text": "ae domain ; ctc version ; variable ctc"}, {"index_id": 103, "dataset": "AE", "variable": "DENO", "label": "Device Event Number", "core": "Supp", "variable_type": "C", "role": "", "dataset_level": "Corporate", "embedding_text": "ae domain ; device event number ; variable deno"}, {"index_id": 104, "dataset": "AE", "variable": "IP", "label": "Investigational Product", "core": "Supp", "variable_type": "C", "role": "", "dataset_level": "Corporate", "embedding_text": "ae domain ; investigational product ; variable ip"}, {"index_id": 105, "dataset": "AE", "variable": "IP1", "label": "Investigational Product 1", "core": "Supp", "variable_type": "C", "role": "", "dataset_level": "Corporate", "embedding_text": "ae domain ; investigational product 1 ; variable ip1"}, {"index_id": 106, "dataset": "AE", "variable": "MEDDRAV", "label": "MedDRA Version", "core": "Supp", "variable_type": "C", "role": "", "dataset_level": "Corporate", "embedding_text": "ae domain ; meddra version ; variable meddrav"}, {"index_id": 107, "dataset": "AE", "variable": "MODULE", "label": "Source Module Short Name", "core": "Supp", "variable_type": "C", "role": "", "dataset_level": "Corporate", "embedding_text": "ae domain ; source module short name ; variable module"}, {"index_id": 108, "dataset": "AE", "variable": "SAECAA", "label": "SAE Caused by Additional Drug", "core": "Supp", "variable_type": "C", "role": "", "dataset_level": "Corporate", "embedding_text": "ae domain ; sae caused by additional drug ; variable saecaa"}, {"index_id": 109, "dataset": "AE", "variable": "SAECAA1", "label": "SAE Caused by Additional Drug 1", "core": "Supp", "variable_type": "C", "role": "", "dataset_level": "Corporate", "embedding_text": "ae domain ; sae caused by additional drug 1 ; variable saecaa1"}, {"index_id": 110, "dataset": "AE", "variable": "SAECAU1", "label": "SAE Caused by Investigational Product 1", "core": "Supp", "variable_type": "C", "role": "", "dataset_level": "Corporate", "embedding_text": "ae domain ; sae caused by investigational product 1 ; variable saecau1"}, {"index_id": 111, "dataset": "AE", "variable": "SAECAUSP", "label": "SAE Caused by Study Procedure(s)", "core": "Supp", "variable_type": "C", "role": "", "dataset_level": "Corporate", "embedding_text": "ae domain ; sae caused by study procedure(s) ; variable saecausp"}, {"index_id": 112, "dataset": "AE", "variable": "SAEDDTC", "label": "Date/Time of Death", "core": "Supp", "variable_type": "C", "role": "", "dataset_level": "Corporate", "embedding_text": "ae domain ; date/time of death ; variable saeddtc"}, {"index_id": 113, "dataset": "AE", "variable": "SAEDIA01", "label": "Diagnostic Investigations 01", "core": "Supp", "variable_type": "C", "role": "", "dataset_level": "Corporate", "embedding_text": "ae domain ; diagnostic investigations 01 ; variable saedia01"}, {"index_id": 114, "dataset": "AE", "variable": "SAEDIA02", "label": "Diagnostic Investigations 02", "core": "Supp", "variable_type": "C", "role": "", "dataset_level": "Corporate", "embedding_text": "ae domain ; diagnostic investigations 02 ; variable saedia02"}, {"index_id": 115, "dataset": "AE", "variable": "SAEDIA03", "label": "Diagnostic Investigations 03", "core": "Supp", "variable_type": "C", "role": "", "dataset_level": "Corporate", "embedding_text": "ae domain ; diagnostic investigations 03 ; variable saedia03"}, {"index_id": 116, "dataset": "AE", "variable": "SAEDIA04", "label": "Diagnostic Investigations 04", "core": "Supp", "variable_type": "C", "role": "", "dataset_level": "Corporate", "embedding_text": "ae domain ; diagnostic investigations 04 ; variable saedia04"}, {"index_id": 117, "dataset": "AE", "variable": "SAEDIA05", "label": "Diagnostic Investigations 05", "core": "Supp", "variable_type": "C", "role": "", "dataset_level": "Corporate", "embedding_text": "ae domain ; diagnostic investigations 05 ; variable saedia05"}, {"index_id": 118, "dataset": "AE", "variable": "SAEDIA06", "label": "Diagnostic Investigations 06", "core": "Supp", "variable_type": "C", "role": "", "dataset_level": "Corporate", "embedding_text": "ae domain ; diagnostic investigations 06 ; variable saedia06"}, {"index_id": 119, "dataset": "AE", "variable": "SAEDIA07", "label": "Diagnostic Investigations 07", "core": "Supp", "variable_type": "C", "role": "", "dataset_level": "Corporate", "embedding_text": "ae domain ; diagnostic investigations 07 ; variable saedia07"}, {"index_id": 120, "dataset": "AE", "variable": "SAEDIA08", "label": "Diagnostic Investigations 08", "core": "Supp", "variable_type": "C", "role": "", "dataset_level": "Corporate", "embedding_text": "ae domain ; diagnostic investigations 08 ; variable saedia08"}, {"index_id": 121, "dataset": "AE", "variable": "SAEDIA09", "label": "Diagnostic Investigations 09", "core": "Supp", "variable_type": "C", "role": "", "dataset_level": "Corporate", "embedding_text": "ae domain ; diagnostic investigations 09 ; variable saedia09"}, {"index_id": 122, "dataset": "AE", "variable": "SAEDIA10", "label": "Diagnostic Investigations 10", "core": "Supp", "variable_type": "C", "role": "", "dataset_level": "Corporate", "embedding_text": "ae domain ; diagnostic investigations 10 ; variable saedia10"}, {"index_id": 123, "dataset": "AE", "variable": "SAEDIDTC", "label": "Date of Discharge", "core": "Supp", "variable_type": "C", "role": "", "dataset_level": "Corporate", "embedding_text": "ae domain ; date of discharge ; variable saedidtc"}, {"index_id": 124, "dataset": "AE", "variable": "SAEDTC", "label": "Date/Time AE Met Criteria for Serious AE", "core": "Supp", "variable_type": "C", "role": "", "dataset_level": "Corporate", "embedding_text": "ae domain ; date/time ae met criteria for serious ae ; variable saedtc"}, {"index_id": 125, "dataset": "AE", "variable": "SAEHODTC", "label": "Date of Hospitalization", "core": "Supp", "variable_type": "C", "role": "", "dataset_level": "Corporate", "embedding_text": "ae domain ; date of hospitalization ; variable saehodtc"}, {"index_id": 126, "dataset": "AE", "variable": "SAEIADTC", "label": "Date Investigator Aware of Serious AE", "core": "Supp", "variable_type": "C", "role": "", "dataset_level": "Corporate", "embedding_text": "ae domain ; date investigator aware of serious ae ; variable saeiadtc"}, {"index_id": 127, "dataset": "AE", "variable": "SAESP", "label": "Study Procedure(s)", "core": "Supp", "variable_type": "C", "role": "", "dataset_level": "Corporate", "embedding_text": "ae domain ; study procedure(s) ; variable saesp"}, {"index_id": 128, "dataset": "AE", "variable": "SAESYM01", "label": "SAE Symptoms 01", "core": "Supp", "variable_type": "C", "role": "", "dataset_level": "Corporate", "embedding_text": "ae domain ; sae symptoms 01 ; variable saesym01"}, {"index_id": 129, "dataset": "AE", "variable": "SAESYM02", "label": "SAE Symptoms 02", "core": "Supp", "variable_type": "C", "role": "", "dataset_level": "Corporate", "embedding_text": "ae domain ; sae symptoms 02 ; variable saesym02"}, {"index_id": 130, "dataset": "AE", "variable": "SAESYM03", "label": "SAE Symptoms 03", "core": "Supp", "variable_type": "C", "role": "", "dataset_level": "Corporate", "embedding_text": "ae domain ; sae symptoms 03 ; variable saesym03"}, {"index_id": 131, "dataset": "AE", "variable": "SAESYM04", "label": "SAE Symptoms 04", "core": "Supp", "variable_type": "C", "role": "", "dataset_level": "Corporate", "embedding_text": "ae domain ; sae symptoms 04 ; variable saesym04"}, {"index_id": 132, "dataset": "AE", "variable": "SAESYM05", "label": "SAE Symptoms 05", "core": "Supp", "variable_type": "C", "role": "", "dataset_level": "Corporate", "embedding_text": "ae domain ; sae symptoms 05 ; variable saesym05"}, {"index_id": 133, "dataset": "AE", "variable": "SAESYM06", "label": "SAE Symptoms 06", "core": "Supp", "variable_type": "C", "role": "", "dataset_level": "Corporate", "embedding_text": "ae domain ; sae symptoms 06 ; variable saesym06"}, {"index_id": 134, "dataset": "AE", "variable": "SAESYM07", "label": "SAE Symptoms 07", "core": "Supp", "variable_type": "C", "role": "", "dataset_level": "Corporate", "embedding_text": "ae domain ; sae symptoms 07 ; variable saesym07"}, {"index_id": 135, "dataset": "AE", "variable": "SAESYM08", "label": "SAE Symptoms 08", "core": "Supp", "variable_type": "C", "role": "", "dataset_level": "Corporate", "embedding_text": "ae domain ; sae symptoms 08 ; variable saesym08"}, {"index_id": 136, "dataset": "AE", "variable": "SAESYM09", "label": "SAE Symptoms 09", "core": "Supp", "variable_type": "C", "role": "", "dataset_level": "Corporate", "embedding_text": "ae domain ; sae symptoms 09 ; variable saesym09"}, {"index_id": 137, "dataset": "AE", "variable": "SAESYM10", "label": "SAE Symptoms 10", "core": "Supp", "variable_type": "C", "role": "", "dataset_level": "Corporate", "embedding_text": "ae domain ; sae symptoms 10 ; variable saesym10"}, {"index_id": 138, "dataset": "AE", "variable": "SAETRT01", "label": "Treatments of SAE 01", "core": "Supp", "variable_type": "C", "role": "", "dataset_level": "Corporate", "embedding_text": "ae domain ; treatments of sae 01 ; variable saetrt01"}, {"index_id": 139, "dataset": "AE", "variable": "SAETRT02", "label": "Treatments of SAE 02", "core": "Supp", "variable_type": "C", "role": "", "dataset_level": "Corporate", "embedding_text": "ae domain ; treatments of sae 02 ; variable saetrt02"}, {"index_id": 140, "dataset": "AE", "variable": "SAETRT03", "label": "Treatments of SAE 03", "core": "Supp", "variable_type": "C", "role": "", "dataset_level": "Corporate", "embedding_text": "ae domain ; treatments of sae 03 ; variable saetrt03"}, {"index_id": 141, "dataset": "AE", "variable": "SAETRT04", "label": "Treatments of SAE 04", "core": "Supp", "variable_type": "C", "role": "", "dataset_level": "Corporate", "embedding_text": "ae domain ; treatments of sae 04 ; variable saetrt04"}, {"index_id": 142, "dataset": "AE", "variable": "SAETRT05", "label": "Treatments of SAE 05", "core": "Supp", "variable_type": "C", "role": "", "dataset_level": "Corporate", "embedding_text": "ae domain ; treatments of sae 05 ; variable saetrt05"}, {"index_id": 143, "dataset": "AE", "variable": "SAETRT06", "label": "Treatments of SAE 06", "core": "Supp", "variable_type": "C", "role": "", "dataset_level": "Corporate", "embedding_text": "ae domain ; treatments of sae 06 ; variable saetrt06"}, {"index_id": 144, "dataset": "AE", "variable": "SAETRT07", "label": "Treatments of SAE 07", "core": "Supp", "variable_type": "C", "role": "", "dataset_level": "Corporate", "embedding_text": "ae domain ; treatments of sae 07 ; variable saetrt07"}, {"index_id": 145, "dataset": "AE", "variable": "SAETRT08", "label": "Treatments of SAE 08", "core": "Supp", "variable_type": "C", "role": "", "dataset_level": "Corporate", "embedding_text": "ae domain ; treatments of sae 08 ; variable saetrt08"}, {"index_id": 146, "dataset": "AE", "variable": "SAETRT09", "label": "Treatments of SAE 09", "core": "Supp", "variable_type": "C", "role": "", "dataset_level": "Corporate", "embedding_text": "ae domain ; treatments of sae 09 ; variable saetrt09"}, {"index_id": 147, "dataset": "AE", "variable": "SAETRT10", "label": "Treatments of SAE 10", "core": "Supp", "variable_type": "C", "role": "", "dataset_level": "Corporate", "embedding_text": "ae domain ; treatments of sae 10 ; variable saetrt10"}, {"index_id": 148, "dataset": "AG", "variable": "STUDYID", "label": "Study Identifier", "core": "Req", "variable_type": "C", "role": "Identifier", "dataset_level": "Respiratory and Immunology", "embedding_text": "ag domain ; study identifier ; variable studyid ; unique identifier for a study."}, {"index_id": 149, "dataset": "AG", "variable": "DOMAIN", "label": "Domain Abbreviation", "core": "Req", "variable_type": "C", "role": "Identifier", "dataset_level": "Respiratory and Immunology", "embedding_text": "ag domain ; domain abbreviation ; variable domain ; two-character abbreviation for the domain."}, {"index_id": 150, "dataset": "AG", "variable": "USUBJID", "label": "Unique Subject Identifier", "core": "Req", "variable_type": "C", "role": "Identifier", "dataset_level": "Respiratory and Immunology", "embedding_text": "ag domain ; unique subject identifier ; variable usubjid ; identifier used to uniquely identify a subject across all studies for all applications or submissions involving the prod"}, {"index_id": 151, "dataset": "AG", "variable": "AGSEQ", "label": "Sequence Number", "core": "Req", "variable_type": "N", "role": "Identifier", "dataset_level": "Respiratory and Immunology", "embedding_text": "ag domain ; sequence number ; variable agseq ; sequence number given to ensure uniqueness of subject records within a domain. may be any valid number."}, {"index_id": 152, "dataset": "AG", "variable": "AGGRPID", "label": "Group ID", "core": "Perm", "variable_type": "C", "role": "Identifier", "dataset_level": "Respiratory and Immunology", "embedding_text": "ag domain ; group id ; variable aggrpid ; used to tie together a block of related records in a single domain for a subject."}, {"index_id": 153, "dataset": "AG", "variable": "AGREFID", "label": "Reference ID", "core": "Perm", "variable_type": "C", "role": "Identifier", "dataset_level": "Respiratory and Immunology", "embedding_text": "ag domain ; reference id ; variable agrefid ; optional internal or external identifier such as lab specimen id, or uuid for an ecg waveform or a medical image."}, {"index_id": 154, "dataset": "AG", "variable": "AGSPID", "label": "Sponsor-Defined Identifier", "core": "Perm", "variable_type": "C", "role": "Identifier", "dataset_level": "Respiratory and Immunology", "embedding_text": "ag domain ; sponsor-defined identifier ; variable agspid ; sponsor-defined reference number. may be preprinted on the crf as an explicit line identifier or defined in the sponsor'"}, {"index_id": 155, "dataset": "AG", "variable": "AGLNKID", "label": "Link ID", "core": "Perm", "variable_type": "C", "role": "Identifier", "dataset_level": "Respiratory and Immunology", "embedding_text": "ag domain ; link id ; variable aglnkid ; identifier used to link related records across domains.this may be a one-to-one or a one-to-many relationship."}, {"index_id": 156, "dataset": "AG", "variable": "AGLNKGRP", "label": "Link Group ID", "core": "Perm", "variable_type": "C", "role": "Identifier", "dataset_level": "Respiratory and Immunology", "embedding_text": "ag domain ; link group id ; variable aglnkgrp ; identifier used to link related records across domains.this will usually be a many-to-one relationship."}, {"index_id": 157, "dataset": "AG", "variable": "AGTRT", "label": "Reported Agent Name", "core": "Req", "variable_type": "C", "role": "Topic", "dataset_level": "Respiratory and Immunology", "embedding_text": "ag domain ; reported agent name ; variable agtrt ; verbatim medication name that is either preprinted or collected on a crf."}, {"index_id": 158, "dataset": "AG", "variable": "AGMODIFY", "label": "Modified Reported Name", "core": "Perm", "variable_type": "C", "role": "Synonym Qualifier", "dataset_level": "Respiratory and Immunology", "embedding_text": "ag domain ; modified reported name ; variable agmodify ; if agtrt is modified to facilitate coding, then agmodify will contain the modified text."}, {"index_id": 159, "dataset": "AG", "variable": "AGDECOD", "label": "Standardized Agent Name", "core": "Perm", "variable_type": "C", "role": "Synonym Qualifier", "dataset_level": "Respiratory and Immunology", "embedding_text": "ag domain ; standardized agent name ; variable agdecod ; standardized or dictionary-derived text description of agtrt or agmodify. equivalent to the generic medication name in w"}, {"index_id": 160, "dataset": "AG", "variable": "AGCAT", "label": "Category for Agent", "core": "Perm", "variable_type": "C", "role": "Grouping Qualifier", "dataset_level": "Respiratory and Immunology", "embedding_text": "ag domain ; category for agent ; variable agcat ; used to define a category of agent. examples: \"challenge agent\", \"pet tracer\"."}, {"index_id": 161, "dataset": "AG", "variable": "AGSCAT", "label": "Subcategory for Agent", "core": "Perm", "variable_type": "C", "role": "Grouping Qualifier", "dataset_level": "Respiratory and Immunology", "embedding_text": "ag domain ; subcategory for agent ; variable agscat ; further categorization of agent."}, {"index_id": 162, "dataset": "AG", "variable": "AGPRESP", "label": "AG Pre-Specified", "core": "Perm", "variable_type": "C", "role": "Variable Qualifier", "dataset_level": "Respiratory and Immunology", "embedding_text": "ag domain ; ag pre-specified ; variable agpresp ; used to indicate whether (\"y\"/null) information about the use of a specific agent was solicited on the crf."}, {"index_id": 163, "dataset": "AG", "variable": "AGOCCUR", "label": "AG Occurrence", "core": "Perm", "variable_type": "C", "role": "Record Qualifier", "dataset_level": "Respiratory and Immunology", "embedding_text": "ag domain ; ag occurrence ; variable agoccur ; when the use of specific agent is solicited, agoccur is used to indicate whether (\"y\"/\"n\") use of the agent occurred. va"}, {"index_id": 164, "dataset": "AG", "variable": "AGSTAT", "label": "Completion Status", "core": "Perm", "variable_type": "C", "role": "Record Qualifier", "dataset_level": "Respiratory and Immunology", "embedding_text": "ag domain ; completion status ; variable agstat ; used to indicate that a question about a prespecified agent was not answered. should be null or have a value of \"not don"}, {"index_id": 165, "dataset": "AG", "variable": "AGREASND", "label": "Reason Procedure Agent Not Collected", "core": "Perm", "variable_type": "C", "role": "Record Qualifier", "dataset_level": "Respiratory and Immunology", "embedding_text": "ag domain ; reason procedure agent not collected ; variable agreasnd ; describes the reason a response to a question about the occurrence of a procedure agent was not collected. used in conju"}, {"index_id": 166, "dataset": "AG", "variable": "AGINDC", "label": "Indication", "core": "Perm", "variable_type": "C", "role": "Record Qualifier", "dataset_level": "Respiratory and Immunology", "embedding_text": "ag domain ; indication ; variable agindc ; denotes the indication for the intervention (e.g., why the therapy was taken or administered)."}, {"index_id": 167, "dataset": "AG", "variable": "AGCLAS", "label": "Agent Class", "core": "Perm", "variable_type": "C", "role": "Variable Qualifier", "dataset_level": "Respiratory and Immunology", "embedding_text": "ag domain ; agent class ; variable agclas ; drug class. may be obtained from coding. when coding to a single class, populate with class value. if using a dictionary"}, {"index_id": 168, "dataset": "AG", "variable": "AGCLASCD", "label": "Agent Class Code", "core": "Perm", "variable_type": "C", "role": "Variable Qualifier", "dataset_level": "Respiratory and Immunology", "embedding_text": "ag domain ; agent class code ; variable agclascd ; class code corresponding to agclas. drug class. may be obtained from coding. when coding to a single class, populate wit"}, {"index_id": 169, "dataset": "AG", "variable": "AGDOSE", "label": "Dose per Administration", "core": "Perm", "variable_type": "N", "role": "Record Qualifier", "dataset_level": "Respiratory and Immunology", "embedding_text": "ag domain ; dose per administration ; variable agdose ; amount of agtrt taken."}, {"index_id": 170, "dataset": "AG", "variable": "AGDOSTXT", "label": "Dose Description", "core": "Perm", "variable_type": "C", "role": "Record Qualifier", "dataset_level": "Respiratory and Immunology", "embedding_text": "ag domain ; dose description ; variable agdostxt ; dosing amounts or a range of dosing information collected in text form. units may be stored in agdosu. examples: \"200-40"}, {"index_id": 171, "dataset": "AG", "variable": "AGDOSU", "label": "Dose Units", "core": "Perm", "variable_type": "C", "role": "Variable Qualifier", "dataset_level": "Respiratory and Immunology", "embedding_text": "ag domain ; dose units ; variable agdosu ; units for agdose and agdostxt. examples: \"ng\", \"mg\", \"mg/kg\"."}, {"index_id": 172, "dataset": "AG", "variable": "AGDOSFRM", "label": "Dose Form", "core": "Perm", "variable_type": "C", "role": "Variable Qualifier", "dataset_level": "Respiratory and Immunology", "embedding_text": "ag domain ; dose form ; variable agdosfrm ; dose form for agtrt. examples: \"tablet\", \"aerosol\"."}, {"index_id": 173, "dataset": "AG", "variable": "AGDOSFRQ", "label": "Dosing Frequency per Interval", "core": "Perm", "variable_type": "C", "role": "Record Qualifier", "dataset_level": "Respiratory and Immunology", "embedding_text": "ag domain ; dosing frequency per interval ; variable agdosfrq ; usually expressed as the number of repeated administrations of agdose within a specific time period. example: \"once\"."}, {"index_id": 174, "dataset": "AG", "variable": "AGDOSTOT", "label": "Total Daily Dose", "core": "Perm", "variable_type": "N", "role": "Record Qualifier", "dataset_level": "Respiratory and Immunology", "embedding_text": "ag domain ; total daily dose ; variable agdostot ; total daily dose of --trt using the units in --dosu. used when dosing is collected as total daily dose."}, {"index_id": 175, "dataset": "AG", "variable": "AGDOSRGM", "label": "Intended Dose Regimen", "core": "Perm", "variable_type": "C", "role": "Record Qualifier", "dataset_level": "Respiratory and Immunology", "embedding_text": "ag domain ; intended dose regimen ; variable agdosrgm ; text description of the (intended) schedule or regimen for the intervention. example: \"two weeks on, two weeks off\"."}, {"index_id": 176, "dataset": "AG", "variable": "AGROUTE", "label": "Route of Administration", "core": "Perm", "variable_type": "C", "role": "Record Qualifier", "dataset_level": "Respiratory and Immunology", "embedding_text": "ag domain ; route of administration ; variable agroute ; route of administration for agtrt. example: \"oral\"."}, {"index_id": 177, "dataset": "AG", "variable": "AGLOT", "label": "Lot Number", "core": "Perm", "variable_type": "C", "role": "Record Qualifier", "dataset_level": "Respiratory and Immunology", "embedding_text": "ag domain ; lot number ; variable aglot ; lot number for the intervention described in --trt."}, {"index_id": 178, "dataset": "AG", "variable": "AGLOC", "label": "Location of Administration", "core": "Perm", "variable_type": "C", "role": "Record Qualifier", "dataset_level": "Respiratory and Immunology", "embedding_text": "ag domain ; location of administration ; variable agloc ; anatomical location of an intervention, such as an injection site. example: arm for an injection."}, {"index_id": 179, "dataset": "AG", "variable": "AGLAT", "label": "Laterality", "core": "Perm", "variable_type": "C", "role": "Variable Qualifier", "dataset_level": "Respiratory and Immunology", "embedding_text": "ag domain ; laterality ; variable aglat ; qualifier for anatomical location further detailing laterality of intervention administration. examples: \"right\", \"left\""}, {"index_id": 180, "dataset": "AG", "variable": "AGDIR", "label": "Directionality", "core": "Perm", "variable_type": "C", "role": "Variable Qualifier", "dataset_level": "Respiratory and Immunology", "embedding_text": "ag domain ; directionality ; variable agdir ; qualifier for anatomical location further detailing directionality of intervention administration. examples: \"anterior\","}, {"index_id": 181, "dataset": "AG", "variable": "AGFAST", "label": "Fasting Status", "core": "Perm", "variable_type": "C", "role": "Record Qualifier", "dataset_level": "Respiratory and Immunology", "embedding_text": "ag domain ; fasting status ; variable agfast ; indicator used to identify fasting status. valid values include \"y\", \"n\", \"u\" or null if not relevant."}, {"index_id": 182, "dataset": "AG", "variable": "AGTRTV", "label": "Treatment Vehicle", "core": "Perm", "variable_type": "C", "role": "Record Qualifier", "dataset_level": "Respiratory and Immunology", "embedding_text": "ag domain ; treatment vehicle ; variable agtrtv ; vehicle for administration of treatment, such as a liquid in which the treatment drug is dissolved. example: \"saline\"."}, {"index_id": 183, "dataset": "AG", "variable": "AGVAMT", "label": "Treatment Vehicle Amount", "core": "Perm", "variable_type": "N", "role": "Record Qualifier", "dataset_level": "Respiratory and Immunology", "embedding_text": "ag domain ; treatment vehicle amount ; variable agvamt ; amount of the prepared product (treatment + vehicle) administered or given. note: should not be diluent amount alone."}, {"index_id": 184, "dataset": "AG", "variable": "AGVAMTU", "label": "Treatment Vehicle Amount Units", "core": "Perm", "variable_type": "C", "role": "Variable Qualifier", "dataset_level": "Respiratory and Immunology", "embedding_text": "ag domain ; treatment vehicle amount units ; variable agvamtu ; units for the prepared product (treatment + vehicle). examples: \"ml\", \"mg\"."}, {"index_id": 185, "dataset": "AG", "variable": "AGADJ", "label": "Reason for Dose Adjustment", "core": "Perm", "variable_type": "C", "role": "Record Qualifier", "dataset_level": "Respiratory and Immunology", "embedding_text": "ag domain ; reason for dose adjustment ; variable agadj ; describes reason or explanation of why a dose is adjusted. examples \"adverse event\", \"insufficient response\", \"non-medic"}, {"index_id": 186, "dataset": "AG", "variable": "VISITNUM", "label": "Visit Number", "core": "Exp", "variable_type": "N", "role": "Timing", "dataset_level": "Respiratory and Immunology", "embedding_text": "ag domain ; visit number ; variable visitnum ; 1. clinical encounter number. \\n 2. numeric version of visit, used for sorting."}, {"index_id": 187, "dataset": "AG", "variable": "VISIT", "label": "Visit Name", "core": "Perm", "variable_type": "C", "role": "Timing", "dataset_level": "Respiratory and Immunology", "embedding_text": "ag domain ; visit name ; variable visit ; 1. protocol-defined description of clinical encounter. \\n 2. may be used in addition to visitnum and/or visitdy."}, {"index_id": 188, "dataset": "AG", "variable": "VISITDY", "label": "Planned Study Day of Visit", "core": "Perm", "variable_type": "N", "role": "Timing", "dataset_level": "Respiratory and Immunology", "embedding_text": "ag domain ; planned study day of visit ; variable visitdy ; planned study day of the visit based upon rfstdtc in demographics."}, {"index_id": 189, "dataset": "AG", "variable": "TAETORD", "label": "Planned Order of Element within Arm", "core": "Perm", "variable_type": "N", "role": "Timing", "dataset_level": "Respiratory and Immunology", "embedding_text": "ag domain ; planned order of element within arm ; variable taetord ; number that gives the planned order of the element within the arm for the element in which the agent administration star"}, {"index_id": 190, "dataset": "AG", "variable": "EPOCH", "label": "Epoch", "core": "Perm", "variable_type": "C", "role": "Timing", "dataset_level": "Respiratory and Immunology", "embedding_text": "ag domain ; epoch ; variable epoch ; epoch associated with the start date/time of the agent administration started."}, {"index_id": 191, "dataset": "AG", "variable": "AGDTC", "label": "Date/Time of Collection", "core": "Perm", "variable_type": "C", "role": "Timing", "dataset_level": "Respiratory and Immunology", "embedding_text": "ag domain ; date/time of collection ; variable agdtc ; collection date and time of an observation."}, {"index_id": 192, "dataset": "AG", "variable": "AGSTDTC", "label": "Start Date/Time of Agent", "core": "Perm", "variable_type": "C", "role": "Timing", "dataset_level": "Respiratory and Immunology", "embedding_text": "ag domain ; start date/time of agent ; variable agstdtc ; the date/time when administration of the treatment indicated by agtrt and the dosing variables began."}, {"index_id": 193, "dataset": "AG", "variable": "AGENDTC", "label": "End Date/Time of Agent", "core": "Perm", "variable_type": "C", "role": "Timing", "dataset_level": "Respiratory and Immunology", "embedding_text": "ag domain ; end date/time of agent ; variable agendtc ; the date/time when administration of the treatment indicated by agtrt and the dosing variables ended."}, {"index_id": 194, "dataset": "AG", "variable": "AGDY", "label": "Study Day of Collection", "core": "Perm", "variable_type": "N", "role": "Timing", "dataset_level": "Respiratory and Immunology", "embedding_text": "ag domain ; study day of collection ; variable agdy ; actual study day of visit/collection/exam expressed in integer days relative to the sponsor-defined rfstdtc in demograph"}, {"index_id": 195, "dataset": "AG", "variable": "AGSTDY", "label": "Study Day of Start of Agent", "core": "Perm", "variable_type": "N", "role": "Timing", "dataset_level": "Respiratory and Immunology", "embedding_text": "ag domain ; study day of start of agent ; variable agstdy ; study day of start of agent relative to the sponsor-defined rfstdtc."}, {"index_id": 196, "dataset": "AG", "variable": "AGENDY", "label": "Study Day of End of Agent", "core": "Perm", "variable_type": "N", "role": "Timing", "dataset_level": "Respiratory and Immunology", "embedding_text": "ag domain ; study day of end of agent ; variable agendy ; study day of end of agent relative to the sponsor-defined rfstdtc."}, {"index_id": 197, "dataset": "AG", "variable": "AGDUR", "label": "Duration of Agent", "core": "Perm", "variable_type": "C", "role": "Timing", "dataset_level": "Respiratory and Immunology", "embedding_text": "ag domain ; duration of agent ; variable agdur ; collected duration for an agent episode. used only if collected on the crf and not derived from start and end date/times"}, {"index_id": 198, "dataset": "AG", "variable": "AGTPT", "label": "Planned Time Point Name", "core": "Perm", "variable_type": "C", "role": "Timing", "dataset_level": "Respiratory and Immunology", "embedding_text": "ag domain ; planned time point name ; variable agtpt ; text description of time when a measurement or observation should be taken as defined in the protocol. this may be repre"}, {"index_id": 199, "dataset": "AG", "variable": "AGTPTNUM", "label": "Planned Time Point Number", "core": "Perm", "variable_type": "N", "role": "Timing", "dataset_level": "Respiratory and Immunology", "embedding_text": "ag domain ; planned time point number ; variable agtptnum ; numeric version of planned time point used in sorting."}, {"index_id": 200, "dataset": "AG", "variable": "AGELTM", "label": "Planned Elapsed Time from Time Point Ref", "core": "Perm", "variable_type": "C", "role": "Timing", "dataset_level": "Respiratory and Immunology", "embedding_text": "ag domain ; planned elapsed time from time point ref ; variable ageltm ; planned elapsed time relative to a planned fixed reference (--tptref) such as \"previous dose\" or \"previous meal\". this v"}, {"index_id": 201, "dataset": "AG", "variable": "AGTPTREF", "label": "Time Point Reference", "core": "Perm", "variable_type": "C", "role": "Timing", "dataset_level": "Respiratory and Immunology", "embedding_text": "ag domain ; time point reference ; variable agtptref ; description of the fixed reference point referred to by --eltm, --tptnum, --tpt, --stint, and --enint. examples: \"previo"}, {"index_id": 202, "dataset": "AG", "variable": "AGSTRF", "label": "Start Relative to Reference Period", "core": "Perm", "variable_type": "C", "role": "Timing", "dataset_level": "Respiratory and Immunology", "embedding_text": "ag domain ; start relative to reference period ; variable agstrf ; describes the start of the agent relative to sponsor-defined reference period. the sponsor-defined reference period is a"}, {"index_id": 203, "dataset": "AG", "variable": "AGENRF", "label": "End Relative to Reference Period", "core": "Perm", "variable_type": "C", "role": "Timing", "dataset_level": "Respiratory and Immunology", "embedding_text": "ag domain ; end relative to reference period ; variable agenrf ; describes the end of the agent relative to the sponsor-defined reference period. the sponsor-defined reference period is"}, {"index_id": 204, "dataset": "AG", "variable": "AGEVLINT", "label": "Evaluation Interval", "core": "Perm", "variable_type": "C", "role": "Timing", "dataset_level": "Respiratory and Immunology", "embedding_text": "ag domain ; evaluation interval ; variable agevlint ; duration of interval associated with an observation such as a finding --testcd. usually used with --dtc to describe an i"}, {"index_id": 205, "dataset": "AG", "variable": "AGSTRTPT", "label": "Start Relative to Reference Time Point", "core": "Perm", "variable_type": "C", "role": "Timing", "dataset_level": "Respiratory and Immunology", "embedding_text": "ag domain ; start relative to reference time point ; variable agstrtpt ; identifies the start of the agent as being before or after the sponsor-defined reference time point defined by variable"}, {"index_id": 206, "dataset": "AG", "variable": "AGSTTPT", "label": "Start Reference Time Point", "core": "Perm", "variable_type": "C", "role": "Timing", "dataset_level": "Respiratory and Immunology", "embedding_text": "ag domain ; start reference time point ; variable agsttpt ; description or date/time in iso 8601 character format of the reference point referred to by agstrtpt. examples: \"2003-12"}, {"index_id": 207, "dataset": "AG", "variable": "AGENRTPT", "label": "End Relative to Reference Time Point", "core": "Perm", "variable_type": "C", "role": "Timing", "dataset_level": "Respiratory and Immunology", "embedding_text": "ag domain ; end relative to reference time point ; variable agenrtpt ; identifies the end of the agent as being before or after the reference time point defined by variable agentpt. identifie"}, {"index_id": 208, "dataset": "AG", "variable": "AGENTPT", "label": "End Reference Time Point", "core": "Perm", "variable_type": "C", "role": "Timing", "dataset_level": "Respiratory and Immunology", "embedding_text": "ag domain ; end reference time point ; variable agentpt ; description or date/time in iso 8601 character format of the reference point referred to by agenrtpt. examples: \"2003-12"}, {"index_id": 209, "dataset": "AG", "variable": "MODULE", "label": "Source Module Short Name", "core": "Supp", "variable_type": "C", "role": "", "dataset_level": "Respiratory and Immunology", "embedding_text": "ag domain ; source module short name ; variable module"}, {"index_id": 210, "dataset": "AG", "variable": "VISITDTC", "label": "Date of Visit", "core": "Supp", "variable_type": "C", "role": "", "dataset_level": "Respiratory and Immunology", "embedding_text": "ag domain ; date of visit ; variable visitdtc"}, {"index_id": 211, "dataset": "AG", "variable": "AGCD", "label": "Medication Code", "core": "Supp", "variable_type": "C", "role": "", "dataset_level": "Respiratory and Immunology", "embedding_text": "ag domain ; medication code ; variable agcd"}, {"index_id": 212, "dataset": "AG", "variable": "AGDECOD2", "label": "Preferred Name 2", "core": "Supp", "variable_type": "C", "role": "", "dataset_level": "Respiratory and Immunology", "embedding_text": "ag domain ; preferred name 2 ; variable agdecod2"}, {"index_id": 213, "dataset": "AG", "variable": "AGDECOD3", "label": "Preferred Name 3", "core": "Supp", "variable_type": "C", "role": "", "dataset_level": "Respiratory and Immunology", "embedding_text": "ag domain ; preferred name 3 ; variable agdecod3"}, {"index_id": 214, "dataset": "AG", "variable": "AGDECOD4", "label": "Preferred Name 4", "core": "Supp", "variable_type": "C", "role": "", "dataset_level": "Respiratory and Immunology", "embedding_text": "ag domain ; preferred name 4 ; variable agdecod4"}, {"index_id": 215, "dataset": "AG", "variable": "AGDECOD5", "label": "Preferred Name 5", "core": "Supp", "variable_type": "C", "role": "", "dataset_level": "Respiratory and Immunology", "embedding_text": "ag domain ; preferred name 5 ; variable agdecod5"}, {"index_id": 216, "dataset": "AG", "variable": "AGDECOD6", "label": "Preferred Name 6", "core": "Supp", "variable_type": "C", "role": "", "dataset_level": "Respiratory and Immunology", "embedding_text": "ag domain ; preferred name 6 ; variable agdecod6"}, {"index_id": 217, "dataset": "AG", "variable": "AGDECOD7", "label": "Preferred Name 7", "core": "Supp", "variable_type": "C", "role": "", "dataset_level": "Respiratory and Immunology", "embedding_text": "ag domain ; preferred name 7 ; variable agdecod7"}, {"index_id": 218, "dataset": "AG", "variable": "AGDECOD8", "label": "Preferred Name 8", "core": "Supp", "variable_type": "C", "role": "", "dataset_level": "Respiratory and Immunology", "embedding_text": "ag domain ; preferred name 8 ; variable agdecod8"}, {"index_id": 219, "dataset": "AG", "variable": "AGDTXT", "label": "Medication Dictionary Text", "core": "Supp", "variable_type": "C", "role": "", "dataset_level": "Respiratory and Immunology", "embedding_text": "ag domain ; medication dictionary text ; variable agdtxt"}, {"index_id": 220, "dataset": "AG", "variable": "AGDTXT2", "label": "Medication Dictionary Text 2", "core": "Supp", "variable_type": "C", "role": "", "dataset_level": "Respiratory and Immunology", "embedding_text": "ag domain ; medication dictionary text 2 ; variable agdtxt2"}, {"index_id": 221, "dataset": "AG", "variable": "AGDTXT3", "label": "Medication Dictionary Text 3", "core": "Supp", "variable_type": "C", "role": "", "dataset_level": "Respiratory and Immunology", "embedding_text": "ag domain ; medication dictionary text 3 ; variable agdtxt3"}, {"index_id": 222, "dataset": "AG", "variable": "AGDTXT4", "label": "Medication Dictionary Text 4", "core": "Supp", "variable_type": "C", "role": "", "dataset_level": "Respiratory and Immunology", "embedding_text": "ag domain ; medication dictionary text 4 ; variable agdtxt4"}, {"index_id": 223, "dataset": "AG", "variable": "AGDTXT5", "label": "Medication Dictionary Text 5", "core": "Supp", "variable_type": "C", "role": "", "dataset_level": "Respiratory and Immunology", "embedding_text": "ag domain ; medication dictionary text 5 ; variable agdtxt5"}, {"index_id": 224, "dataset": "AG", "variable": "AGDTXT6", "label": "Medication Dictionary Text 6", "core": "Supp", "variable_type": "C", "role": "", "dataset_level": "Respiratory and Immunology", "embedding_text": "ag domain ; medication dictionary text 6 ; variable agdtxt6"}, {"index_id": 225, "dataset": "AG", "variable": "AGDTXT7", "label": "Medication Dictionary Text 7", "core": "Supp", "variable_type": "C", "role": "", "dataset_level": "Respiratory and Immunology", "embedding_text": "ag domain ; medication dictionary text 7 ; variable agdtxt7"}, {"index_id": 226, "dataset": "AG", "variable": "AGDTXT8", "label": "Medication Dictionary Text 8", "core": "Supp", "variable_type": "C", "role": "", "dataset_level": "Respiratory and Immunology", "embedding_text": "ag domain ; medication dictionary text 8 ; variable agdtxt8"}, {"index_id": 227, "dataset": "AG", "variable": "AGGROUP", "label": "Pref. Grouping Term", "core": "Supp", "variable_type": "C", "role": "", "dataset_level": "Respiratory and Immunology", "embedding_text": "ag domain ; pref. grouping term ; variable aggroup"}, {"index_id": 228, "dataset": "AG", "variable": "AGGROUP3", "label": "Pref. Group Term 3", "core": "Supp", "variable_type": "C", "role": "", "dataset_level": "Respiratory and Immunology", "embedding_text": "ag domain ; pref. group term 3 ; variable aggroup3"}, {"index_id": 229, "dataset": "AG", "variable": "AGGROUP4", "label": "Pref. Group Term 4", "core": "Supp", "variable_type": "C", "role": "", "dataset_level": "Respiratory and Immunology", "embedding_text": "ag domain ; pref. group term 4 ; variable aggroup4"}, {"index_id": 230, "dataset": "AG", "variable": "AGGROUP5", "label": "Pref. Group Term 5", "core": "Supp", "variable_type": "C", "role": "", "dataset_level": "Respiratory and Immunology", "embedding_text": "ag domain ; pref. group term 5 ; variable aggroup5"}, {"index_id": 231, "dataset": "AG", "variable": "AGGROUP6", "label": "Pref. Group Term 6", "core": "Supp", "variable_type": "C", "role": "", "dataset_level": "Respiratory and Immunology", "embedding_text": "ag domain ; pref. group term 6 ; variable aggroup6"}, {"index_id": 232, "dataset": "AG", "variable": "AGGROUP7", "label": "Pref. Group Term 7", "core": "Supp", "variable_type": "C", "role": "", "dataset_level": "Respiratory and Immunology", "embedding_text": "ag domain ; pref. group term 7 ; variable aggroup7"}, {"index_id": 233, "dataset": "AG", "variable": "AGGROUP8", "label": "Pref. Group Term 8", "core": "Supp", "variable_type": "C", "role": "", "dataset_level": "Respiratory and Immunology", "embedding_text": "ag domain ; pref. group term 8 ; variable aggroup8"}, {"index_id": 234, "dataset": "AG", "variable": "INGRED1", "label": "Active Ingredient 1", "core": "Supp", "variable_type": "C", "role": "", "dataset_level": "Respiratory and Immunology", "embedding_text": "ag domain ; active ingredient 1 ; variable ingred1"}, {"index_id": 235, "dataset": "AG", "variable": "INGRED2", "label": "Active Ingredient 2", "core": "Supp", "variable_type": "C", "role": "", "dataset_level": "Respiratory and Immunology", "embedding_text": "ag domain ; active ingredient 2 ; variable ingred2"}, {"index_id": 236, "dataset": "AG", "variable": "AGGROUP2", "label": "AGGROUP2", "core": "Supp", "variable_type": "C", "role": "", "dataset_level": "Respiratory and Immunology", "embedding_text": "ag domain ; aggroup2 ; variable aggroup2"}, {"index_id": 237, "dataset": "AG", "variable": "WHODRGV", "label": "WHO Drug Dictionary Version", "core": "Supp", "variable_type": "C", "role": "", "dataset_level": "Respiratory and Immunology", "embedding_text": "ag domain ; who drug dictionary version ; variable whodrgv"}, {"index_id": 238, "dataset": "APMH", "variable": "STUDYID", "label": "Study Identifier", "core": "Perm", "variable_type": "C", "role": "Identifier", "dataset_level": "Corporate", "embedding_text": "apmh domain ; study identifier ; variable studyid ; unique identifier for a study."}, {"index_id": 239, "dataset": "APMH", "variable": "DOMAIN", "label": "Domain Abbreviation", "core": "Req", "variable_type": "C", "role": "Identifier", "dataset_level": "Corporate", "embedding_text": "apmh domain ; domain abbreviation ; variable domain ; two-character abbreviation for the domain."}, {"index_id": 240, "dataset": "APMH", "variable": "APID", "label": "Associated Persons Identifier", "core": "Req", "variable_type": "C", "role": "Identifier", "dataset_level": "Corporate", "embedding_text": "apmh domain ; associated persons identifier ; variable apid ; identifier for a single associated person, a group of associated persons, or a pool of associated persons."}, {"index_id": 241, "dataset": "APMH", "variable": "MHSEQ", "label": "Sequence Number", "core": "Perm", "variable_type": "N", "role": "Identifier", "dataset_level": "Corporate", "embedding_text": "apmh domain ; sequence number ; variable mhseq ; sequence number to ensure uniqueness of records within a dataset for a subject (or within a parameter, in the case of th"}, {"index_id": 242, "dataset": "APMH", "variable": "MHTERM", "label": "Reported Term for the Medical History", "core": "Perm", "variable_type": "C", "role": "Topic", "dataset_level": "Corporate", "embedding_text": "apmh domain ; reported term for the medical history ; variable mhterm ; topic variable for an event observation, which is the verbatim or pre-specified name of the event."}, {"index_id": 243, "dataset": "APMH", "variable": "MHPRESP", "label": "Medical History Event Pre-Specified", "core": "Perm", "variable_type": "C", "role": "Record Qualifier", "dataset_level": "Corporate", "embedding_text": "apmh domain ; medical history event pre-specified ; variable mhpresp ; used to indicate whether the event described by --term was pre-specified on a crf. value is y for pre-specified events,"}, {"index_id": 244, "dataset": "APMH", "variable": "MHOCCUR", "label": "Medical History Occurrence", "core": "Perm", "variable_type": "C", "role": "Record Qualifier", "dataset_level": "Corporate", "embedding_text": "apmh domain ; medical history occurrence ; variable mhoccur ; used to record whether a pre-specified event occurred when information about the occurrence of a specific event is solic"}, {"index_id": 245, "dataset": "APMH", "variable": "VISITNUM", "label": "Visit Number", "core": "Perm", "variable_type": "N", "role": "Timing", "dataset_level": "Corporate", "embedding_text": "apmh domain ; visit number ; variable visitnum ; 1. clinical encounter number. 2. numeric version of visit, used for sorting."}, {"index_id": 246, "dataset": "APMH", "variable": "VISIT", "label": "Visit Name", "core": "Perm", "variable_type": "C", "role": "Timing", "dataset_level": "Corporate", "embedding_text": "apmh domain ; visit name ; variable visit ; 1. protocol-defined description of clinical encounter. 2. may be used in addition to visitnum and/or visitdy."}, {"index_id": 247, "dataset": "APMH", "variable": "VISITDY", "label": "Planned Study Day of Visit", "core": "Perm", "variable_type": "N", "role": "Timing", "dataset_level": "Corporate", "embedding_text": "apmh domain ; planned study day of visit ; variable visitdy ; planned study day of visit based upon rfstdtc in demographics. should be an integer."}, {"index_id": 248, "dataset": "APMH", "variable": "RSUBJID", "label": "Related Subject", "core": "Perm", "variable_type": "C", "role": "Record Qualifier", "dataset_level": "Corporate", "embedding_text": "apmh domain ; related subject ; variable rsubjid ; identifier for a related subject or pool of subjects. rsubjid may be populated with the usubjid of the related subject o"}, {"index_id": 249, "dataset": "APMH", "variable": "SREL", "label": "Subject, Device, or Study Relationship", "core": "Perm", "variable_type": "C", "role": "Record Qualifier", "dataset_level": "Corporate", "embedding_text": "apmh domain ; subject, device, or study relationship ; variable srel ; if rsubjid is populated, describes the relationship of the associated person(s) identified in apid to the subject or poo"}, {"index_id": 250, "dataset": "APRELSUB", "variable": "STUDYID", "label": "Study Identifier", "core": "Req", "variable_type": "C", "role": "Identifier", "dataset_level": "Corporate", "embedding_text": "aprelsub domain ; study identifier ; variable studyid"}, {"index_id": 251, "dataset": "APRELSUB", "variable": "APID", "label": "Associated Persons Identifier", "core": "Perm", "variable_type": "C", "role": "Identifier", "dataset_level": "Corporate", "embedding_text": "aprelsub domain ; associated persons identifier ; variable apid"}, {"index_id": 252, "dataset": "APRELSUB", "variable": "RSUBJID", "label": "Related Subject or Pool Identifier", "core": "Exp", "variable_type": "C", "role": "Identifier", "dataset_level": "Corporate", "embedding_text": "aprelsub domain ; related subject or pool identifier ; variable rsubjid"}, {"index_id": 253, "dataset": "APRELSUB", "variable": "RDEVID", "label": "Related Device Identifier", "core": "Perm", "variable_type": "C", "role": "Identifier", "dataset_level": "Corporate", "embedding_text": "aprelsub domain ; related device identifier ; variable rdevid"}, {"index_id": 254, "dataset": "APRELSUB", "variable": "SREL", "label": "Subject, Device, or Study Relationship", "core": "Req", "variable_type": "C", "role": "Record Qualifier", "dataset_level": "Corporate", "embedding_text": "aprelsub domain ; subject, device, or study relationship ; variable srel"}, {"index_id": 255, "dataset": "BE", "variable": "STUDYID", "label": "Study Identifier", "core": "Req", "variable_type": "C", "role": "Identifier", "dataset_level": "Corporate", "embedding_text": "be domain ; study identifier ; variable studyid ; unique identifier for a study."}, {"index_id": 256, "dataset": "BE", "variable": "DOMAIN", "label": "Domain Abbreviation", "core": "Req", "variable_type": "C", "role": "Identifier", "dataset_level": "Corporate", "embedding_text": "be domain ; domain abbreviation ; variable domain ; two-character abbreviation for the domain."}, {"index_id": 257, "dataset": "BE", "variable": "USUBJID", "label": "Unique Subject Identifier", "core": "Req", "variable_type": "C", "role": "Identifier", "dataset_level": "Corporate", "embedding_text": "be domain ; unique subject identifier ; variable usubjid ; identifier used to uniquely identify a subject across all studies for all applications or submissions involving the prod"}, {"index_id": 258, "dataset": "BE", "variable": "SPDEVID", "label": "Sponsor Device Identifier", "core": "Perm", "variable_type": "C", "role": "Identifier", "dataset_level": "Corporate", "embedding_text": "be domain ; sponsor device identifier ; variable spdevid ; sponsor-defined identifier for a device."}, {"index_id": 259, "dataset": "BE", "variable": "BESEQ", "label": "Sequence Number", "core": "Req", "variable_type": "N", "role": "Identifier", "dataset_level": "Corporate", "embedding_text": "be domain ; sequence number ; variable beseq ; sequence number to ensure uniqueness of records within a dataset for a subject. may be any valid number (including decim"}, {"index_id": 260, "dataset": "BE", "variable": "BEGRPID", "label": "Group ID", "core": "Perm", "variable_type": "C", "role": "Identifier", "dataset_level": "Corporate", "embedding_text": "be domain ; group id ; variable begrpid ; optional group identifier, used to link together a block of related records within a subject in a domain."}, {"index_id": 261, "dataset": "BE", "variable": "BEREFID", "label": "Reference ID", "core": "Exp", "variable_type": "C", "role": "Identifier", "dataset_level": "Corporate", "embedding_text": "be domain ; reference id ; variable berefid ; internal or external identifier for the specimen affected or created by the event."}, {"index_id": 262, "dataset": "BE", "variable": "BESPID", "label": "Sponsor-Defined Identifier", "core": "Perm", "variable_type": "C", "role": "Identifier", "dataset_level": "Corporate", "embedding_text": "be domain ; sponsor-defined identifier ; variable bespid ; optional sponsor-defined reference number. example: line number on a crf page."}, {"index_id": 263, "dataset": "BE", "variable": "BETERM", "label": "Reported Term for the Biospecimen Event", "core": "Req", "variable_type": "C", "role": "Topic", "dataset_level": "Corporate", "embedding_text": "be domain ; reported term for the biospecimen event ; variable beterm ; topic variable for an event observation, which is the verbatim or pre-specified name of the event."}, {"index_id": 264, "dataset": "BE", "variable": "BEMODIFY", "label": "Modified Reported Term", "core": "Perm", "variable_type": "C", "role": "Synonym Qualifier", "dataset_level": "Corporate", "embedding_text": "be domain ; modified reported term ; variable bemodify ; if the value for beterm is modified for coding purposes, then the modified text is placed here."}, {"index_id": 265, "dataset": "BE", "variable": "BEDECOD", "label": "Dictionary-Derived Term", "core": "Perm", "variable_type": "C", "role": "Synonym Qualifier", "dataset_level": "Corporate", "embedding_text": "be domain ; dictionary-derived term ; variable bedecod ; dictionary-derived text description of beterm or bemodify, if applicable."}, {"index_id": 266, "dataset": "BE", "variable": "BECAT", "label": "Category for Biospecimen Event", "core": "Perm", "variable_type": "C", "role": "Grouping Qualifier", "dataset_level": "Corporate", "embedding_text": "be domain ; category for biospecimen event ; variable becat ; used to define a category of topic-variable values. example: collection, preparation, transport."}, {"index_id": 267, "dataset": "BE", "variable": "BESCAT", "label": "Subcategory for Biospecimen Event", "core": "Perm", "variable_type": "C", "role": "Grouping Qualifier", "dataset_level": "Corporate", "embedding_text": "be domain ; subcategory for biospecimen event ; variable bescat ; a further categorization of becat values."}, {"index_id": 268, "dataset": "BE", "variable": "BELOC", "label": "Anatomical Location of Event", "core": "Perm", "variable_type": "C", "role": "Record Qualifier", "dataset_level": "Corporate", "embedding_text": "be domain ; anatomical location of event ; variable beloc ; describes the anatomical location relevant for the event (e.g. brain, lung)."}, {"index_id": 269, "dataset": "BE", "variable": "BEPARTY", "label": "Accountable Party", "core": "Perm", "variable_type": "C", "role": "Variable Qualifier", "dataset_level": "Corporate", "embedding_text": "be domain ; accountable party ; variable beparty ; party accountable for the transferable object (e.g. specimen) as a result of the activity performed in the associated be"}, {"index_id": 270, "dataset": "BE", "variable": "BEPRTYID", "label": "Identification of Accountable Party", "core": "Perm", "variable_type": "C", "role": "Record Qualifier", "dataset_level": "Corporate", "embedding_text": "be domain ; identification of accountable party ; variable beprtyid ; identification of the specific party accountable for the transferable object (e.g. specimen) after the action in beterm"}, {"index_id": 271, "dataset": "BE", "variable": "VISITNUM", "label": "Visit Number", "core": "Exp", "variable_type": "N", "role": "Timing", "dataset_level": "Corporate", "embedding_text": "be domain ; visit number ; variable visitnum ; clinical encounter number. numeric version of visit, used for sorting."}, {"index_id": 272, "dataset": "BE", "variable": "VISIT", "label": "Visit Name", "core": "Perm", "variable_type": "C", "role": "Timing", "dataset_level": "Corporate", "embedding_text": "be domain ; visit name ; variable visit ; protocol-defined description of clinical encounter."}, {"index_id": 273, "dataset": "BE", "variable": "VISITDY", "label": "Planned Study Day of Visit", "core": "Perm", "variable_type": "N", "role": "Timing", "dataset_level": "Corporate", "embedding_text": "be domain ; planned study day of visit ; variable visitdy ; planned study day of visit. should be an integer."}, {"index_id": 274, "dataset": "BE", "variable": "BEDTC", "label": "Date/Time of Specimen Collection", "core": "Exp", "variable_type": "C", "role": "Timing", "dataset_level": "Corporate", "embedding_text": "be domain ; date/time of specimen collection ; variable bedtc ; date and time of specimen collection."}, {"index_id": 275, "dataset": "BE", "variable": "BESTDTC", "label": "Start Date/Time of Biospecimen Event", "core": "Exp", "variable_type": "C", "role": "Timing", "dataset_level": "Corporate", "embedding_text": "be domain ; start date/time of biospecimen event ; variable bestdtc ; start date/time of the event."}, {"index_id": 276, "dataset": "BE", "variable": "BEENDTC", "label": "End Date/Time of Biospecimen Event", "core": "Exp", "variable_type": "C", "role": "Timing", "dataset_level": "Corporate", "embedding_text": "be domain ; end date/time of biospecimen event ; variable beendtc ; end date/time of the event."}, {"index_id": 277, "dataset": "BE", "variable": "BESTDY", "label": "Study Day of Start of Biospecimen Event", "core": "Perm", "variable_type": "N", "role": "Timing", "dataset_level": "Corporate", "embedding_text": "be domain ; study day of start of biospecimen event ; variable bestdy ; actual study day of start of observation expressed in integer days relative to the sponsor-defined rfstdtc in demographi"}, {"index_id": 278, "dataset": "BE", "variable": "BEENDY", "label": "Study Day of End of Biospecimen Event", "core": "Perm", "variable_type": "N", "role": "Timing", "dataset_level": "Corporate", "embedding_text": "be domain ; study day of end of biospecimen event ; variable beendy ; actual study day of end of observation expressed in integer days relative to the sponsor-defined rfstdtc in demographics"}, {"index_id": 279, "dataset": "BE", "variable": "BEDUR", "label": "Duration of Biospecimen Event", "core": "Perm", "variable_type": "C", "role": "Timing", "dataset_level": "Corporate", "embedding_text": "be domain ; duration of biospecimen event ; variable bedur ; collected duration and unit of a biospecimen event. used only if collected on the crf and not derived from start and end"}, {"index_id": 280, "dataset": "BS", "variable": "STUDYID", "label": "Study Identifier", "core": "Req", "variable_type": "C", "role": "Identifier", "dataset_level": "Corporate", "embedding_text": "bs domain ; study identifier ; variable studyid ; unique identifier for a study."}, {"index_id": 281, "dataset": "BS", "variable": "DOMAIN", "label": "Domain Abbreviation", "core": "Req", "variable_type": "C", "role": "Identifier", "dataset_level": "Corporate", "embedding_text": "bs domain ; domain abbreviation ; variable domain ; two-character abbreviation for the domain."}, {"index_id": 282, "dataset": "BS", "variable": "USUBJID", "label": "Unique Subject Identifier", "core": "Req", "variable_type": "C", "role": "Identifier", "dataset_level": "Corporate", "embedding_text": "bs domain ; unique subject identifier ; variable usubjid ; identifier used to uniquely identify a subject across all studies for all applications or submissions involving the prod"}, {"index_id": 283, "dataset": "BS", "variable": "SPDEVID", "label": "Sponsor Device Identifier", "core": "Perm", "variable_type": "C", "role": "Identifier", "dataset_level": "Corporate", "embedding_text": "bs domain ; sponsor device identifier ; variable spdevid ; sponsor-defined identifier for a device."}, {"index_id": 284, "dataset": "BS", "variable": "BSSEQ", "label": "Sequence Number", "core": "Req", "variable_type": "N", "role": "Identifier", "dataset_level": "Corporate", "embedding_text": "bs domain ; sequence number ; variable bsseq ; sequence number given to ensure uniqueness within a dataset for a subject. may be any valid number (including decimals)"}, {"index_id": 285, "dataset": "BS", "variable": "BSGRPID", "label": "Group ID", "core": "Perm", "variable_type": "C", "role": "Identifier", "dataset_level": "Corporate", "embedding_text": "bs domain ; group id ; variable bsgrpid ; optional group identifier, used to link together a block of related records within a subject in a domain."}, {"index_id": 286, "dataset": "BS", "variable": "BSREFID", "label": "Reference ID", "core": "Exp", "variable_type": "C", "role": "Identifier", "dataset_level": "Corporate", "embedding_text": "bs domain ; reference id ; variable bsrefid ; internal or external identifier such as lab specimen id."}, {"index_id": 287, "dataset": "BS", "variable": "BSSPID", "label": "Sponsor-Defined Identifier", "core": "Perm", "variable_type": "C", "role": "Identifier", "dataset_level": "Corporate", "embedding_text": "bs domain ; sponsor-defined identifier ; variable bsspid ; sponsor-defined identifier."}, {"index_id": 288, "dataset": "BS", "variable": "BSTESTCD", "label": "Biospecimen Test Short Name", "core": "Req", "variable_type": "C", "role": "Topic", "dataset_level": "Corporate", "embedding_text": "bs domain ; biospecimen test short name ; variable bstestcd ; short character value for bstest used as a column name when converting a dataset from a vertical format to a horizontal"}, {"index_id": 289, "dataset": "BS", "variable": "BSTEST", "label": "Biospecimen Test Name", "core": "Req", "variable_type": "C", "role": "Synonym Qualifier", "dataset_level": "Corporate", "embedding_text": "bs domain ; biospecimen test name ; variable bstest ; long name for bstestcd. examples: volume, rna integrity number."}, {"index_id": 290, "dataset": "BS", "variable": "BSCAT", "label": "Category for Biospecimen Test", "core": "Exp", "variable_type": "C", "role": "Grouping Qualifier", "dataset_level": "Corporate", "embedding_text": "bs domain ; category for biospecimen test ; variable bscat ; used to define a category of topic-variable values. example: measurement, quality."}, {"index_id": 291, "dataset": "BS", "variable": "BSSCAT", "label": "Subcategory for Biospecimen Test", "core": "Perm", "variable_type": "C", "role": "Grouping Qualifier", "dataset_level": "Corporate", "embedding_text": "bs domain ; subcategory for biospecimen test ; variable bsscat ; used to define a further categorization of bscat values."}, {"index_id": 292, "dataset": "BS", "variable": "BSORRES", "label": "Result or Finding in Original Units", "core": "Exp", "variable_type": "C", "role": "Result Qualifier", "dataset_level": "Corporate", "embedding_text": "bs domain ; result or finding in original units ; variable bsorres ; result of the measurement or finding as originally received or collected."}, {"index_id": 293, "dataset": "BS", "variable": "BSORRESU", "label": "Original Units", "core": "Exp", "variable_type": "C", "role": "Variable Qualifier", "dataset_level": "Corporate", "embedding_text": "bs domain ; original units ; variable bsorresu ; unit for bsorres. examples: mg, ml."}, {"index_id": 294, "dataset": "BS", "variable": "BSSTRESC", "label": "Character Result/Finding in Std Format", "core": "Exp", "variable_type": "C", "role": "Result Qualifier", "dataset_level": "Corporate", "embedding_text": "bs domain ; character result/finding in std format ; variable bsstresc ; contains the result value for all findings, copied or derived from bsorres in a standard format or standard units. bsstr"}, {"index_id": 295, "dataset": "BS", "variable": "BSSTRESN", "label": "Numeric Result/Finding in Standard Units", "core": "Exp", "variable_type": "N", "role": "Result Qualifier", "dataset_level": "Corporate", "embedding_text": "bs domain ; numeric result/finding in standard units ; variable bsstresn ; used for continuous or numeric results or findings in standard format; copied in numeric format from bsstresc. bsstresn"}, {"index_id": 296, "dataset": "BS", "variable": "BSSTRESU", "label": "Standard Units", "core": "Exp", "variable_type": "C", "role": "Variable Qualifier", "dataset_level": "Corporate", "embedding_text": "bs domain ; standard units ; variable bsstresu ; standardized unit used for bsstresc and bsstresn."}, {"index_id": 297, "dataset": "BS", "variable": "BSSTAT", "label": "Completion Status", "core": "Perm", "variable_type": "C", "role": "Record Qualifier", "dataset_level": "Corporate", "embedding_text": "bs domain ; completion status ; variable bsstat ; used to indicate that a test was not done, or was attempted but did not generate a result. should be null or have a valu"}, {"index_id": 298, "dataset": "BS", "variable": "BSREASND", "label": "Reason Test Not Done", "core": "Perm", "variable_type": "C", "role": "Record Qualifier", "dataset_level": "Corporate", "embedding_text": "bs domain ; reason test not done ; variable bsreasnd ; reason not done. used in conjunction with bsstat when value is not done."}, {"index_id": 299, "dataset": "BS", "variable": "BSNAM", "label": "Vendor Name", "core": "Perm", "variable_type": "C", "role": "Record Qualifier", "dataset_level": "Corporate", "embedding_text": "bs domain ; vendor name ; variable bsnam ; name or identifier of the vendor (e.g., laboratory) that provided the test results."}, {"index_id": 300, "dataset": "BS", "variable": "BSSPEC", "label": "Specimen Type", "core": "Perm", "variable_type": "C", "role": "Record Qualifier", "dataset_level": "Corporate", "embedding_text": "bs domain ; specimen type ; variable bsspec ; defines the type of specimen used for a measurement. examples: serum, plasma, urine, soft tissue."}, {"index_id": 301, "dataset": "BS", "variable": "BSANTREG", "label": "Anatomical Region of Specimen", "core": "Perm", "variable_type": "C", "role": "Variable Qualifier", "dataset_level": "Corporate", "embedding_text": "bs domain ; anatomical region of specimen ; variable bsantreg ; defines the specific anatomical or biological region of a tissue, organ specimen or the region from which the specimen i"}, {"index_id": 302, "dataset": "BS", "variable": "BSSPCCND", "label": "Specimen Condition", "core": "Perm", "variable_type": "C", "role": "Record Qualifier", "dataset_level": "Corporate", "embedding_text": "bs domain ; specimen condition ; variable bsspccnd ; defines the condition of the specimen. examples: hemolyzed, icteric, lipemic."}, {"index_id": 303, "dataset": "BS", "variable": "BSMETHOD", "label": "Method of Test or Examination", "core": "Perm", "variable_type": "C", "role": "Record Qualifier", "dataset_level": "Corporate", "embedding_text": "bs domain ; method of test or examination ; variable bsmethod ; method of the test or examination. examples: spectrophotometry, electrophoresis."}, {"index_id": 304, "dataset": "BS", "variable": "BSLOBXFL", "label": "Last Observation Before Exposure Flag", "core": "Exp", "variable_type": "C", "role": "Record Qualifier", "dataset_level": "Corporate", "embedding_text": "bs domain ; last observation before exposure flag ; variable bslobxfl ; operationally-derived indicator used to identify the last non-missing value prior to rfxstdtc. the value should be \"y\" o"}, {"index_id": 305, "dataset": "BS", "variable": "BSBLFL", "label": "Baseline Flag", "core": "Perm", "variable_type": "C", "role": "Record Qualifier", "dataset_level": "Corporate", "embedding_text": "bs domain ; baseline flag ; variable bsblfl ; indicator used to identify a baseline value."}, {"index_id": 306, "dataset": "BS", "variable": "VISITNUM", "label": "Visit Number", "core": "Exp", "variable_type": "N", "role": "Timing", "dataset_level": "Corporate", "embedding_text": "bs domain ; visit number ; variable visitnum ; clinical encounter number. numeric version of visit, used for sorting."}, {"index_id": 307, "dataset": "BS", "variable": "VISIT", "label": "Visit Name", "core": "Perm", "variable_type": "C", "role": "Timing", "dataset_level": "Corporate", "embedding_text": "bs domain ; visit name ; variable visit ; protocol-defined description of clinical encounter."}, {"index_id": 308, "dataset": "BS", "variable": "VISITDY", "label": "Planned Study Day of Visit", "core": "Perm", "variable_type": "N", "role": "Timing", "dataset_level": "Corporate", "embedding_text": "bs domain ; planned study day of visit ; variable visitdy ; planned study day of visit. should be an integer."}, {"index_id": 309, "dataset": "BS", "variable": "EPOCH", "label": "Epoch", "core": "Perm", "variable_type": "C", "role": "Timing", "dataset_level": "Corporate", "embedding_text": "bs domain ; epoch ; variable epoch ; epoch associated with the date/time at which the assessment was made."}, {"index_id": 310, "dataset": "BS", "variable": "BSDTC", "label": "Date/Time of Specimen Collection", "core": "Exp", "variable_type": "C", "role": "Timing", "dataset_level": "Corporate", "embedding_text": "bs domain ; date/time of specimen collection ; variable bsdtc ; date and time of specimen collection."}, {"index_id": 311, "dataset": "BS", "variable": "BSDY", "label": "Study Day of Specimen Collection", "core": "Perm", "variable_type": "N", "role": "Timing", "dataset_level": "Corporate", "embedding_text": "bs domain ; study day of specimen collection ; variable bsdy ; study day of specimen collection relative to the sponsor-defined rfstdtc."}, {"index_id": 312, "dataset": "BS", "variable": "BSTPT", "label": "Planned Time Point Name", "core": "Perm", "variable_type": "C", "role": "Timing", "dataset_level": "Corporate", "embedding_text": "bs domain ; planned time point name ; variable bstpt ; text description of time when a measurement or observation should be taken as defined in the protocol. this may be repre"}, {"index_id": 313, "dataset": "BS", "variable": "BSTPTNUM", "label": "Planned Time Point Number", "core": "Perm", "variable_type": "N", "role": "Timing", "dataset_level": "Corporate", "embedding_text": "bs domain ; planned time point number ; variable bstptnum ; numerical version of bstpt used in sorting."}, {"index_id": 314, "dataset": "BS", "variable": "BSELTM", "label": "Planned Elapsed Time from Time Point Ref", "core": "Perm", "variable_type": "C", "role": "Timing", "dataset_level": "Corporate", "embedding_text": "bs domain ; planned elapsed time from time point ref ; variable bseltm ; elapsed time relative to a planned fixed reference (bstptref). this variable is useful where there are repetitive measur"}, {"index_id": 315, "dataset": "BS", "variable": "BSSTPTREF", "label": "Time Point Reference", "core": "Perm", "variable_type": "C", "role": "Timing", "dataset_level": "Corporate", "embedding_text": "bs domain ; time point reference ; variable bsstptref ; name of the fixed reference point referred to by bseltm, bstptnum, and bstpt. examples: previous dose, previous meal."}, {"index_id": 316, "dataset": "BS", "variable": "BSRFTDTC", "label": "Date/Time of Reference Time Point", "core": "Perm", "variable_type": "C", "role": "Timing", "dataset_level": "Corporate", "embedding_text": "bs domain ; date/time of reference time point ; variable bsrftdtc ; date/time for a fixed reference time point defined by bstptref."}, {"index_id": 317, "dataset": "CE", "variable": "STUDYID", "label": "Study Identifier", "core": "Req", "variable_type": "C", "role": "Identifier", "dataset_level": "Corporate", "embedding_text": "ce domain ; study identifier ; variable studyid ; unique identifier for a study."}, {"index_id": 318, "dataset": "CE", "variable": "DOMAIN", "label": "Domain Abbreviation", "core": "Req", "variable_type": "C", "role": "Identifier", "dataset_level": "Corporate", "embedding_text": "ce domain ; domain abbreviation ; variable domain ; two-character abbreviation for the domain."}, {"index_id": 319, "dataset": "CE", "variable": "USUBJID", "label": "Unique Subject Identifier", "core": "Req", "variable_type": "C", "role": "Identifier", "dataset_level": "Corporate", "embedding_text": "ce domain ; unique subject identifier ; variable usubjid ; identifier used to uniquely identify a subject across all studies for all applications or submissions involving the prod"}, {"index_id": 320, "dataset": "CE", "variable": "CESEQ", "label": "Sequence Number", "core": "Req", "variable_type": "N", "role": "Identifier", "dataset_level": "Corporate", "embedding_text": "ce domain ; sequence number ; variable ceseq ; sequence number given to ensure uniqueness of subject records within a domain. may be any valid number."}, {"index_id": 321, "dataset": "CE", "variable": "CEGRPID", "label": "Group ID", "core": "Perm", "variable_type": "C", "role": "Identifier", "dataset_level": "Corporate", "embedding_text": "ce domain ; group id ; variable cegrpid ; used to link together a block of related records for a subject within a domain."}, {"index_id": 322, "dataset": "CE", "variable": "CEREFID", "label": "Reference ID", "core": "Perm", "variable_type": "C", "role": "Identifier", "dataset_level": "Corporate", "embedding_text": "ce domain ; reference id ; variable cerefid ; internal or external identifier (e.g., lab specimen id, uuid for an ecg waveform or medical image)."}, {"index_id": 323, "dataset": "CE", "variable": "CESPID", "label": "Sponsor-Defined Identifier", "core": "Perm", "variable_type": "C", "role": "Identifier", "dataset_level": "Corporate", "embedding_text": "ce domain ; sponsor-defined identifier ; variable cespid ; sponsor-defined identifier."}, {"index_id": 324, "dataset": "CE", "variable": "CELNKID", "label": "Link ID", "core": "Perm", "variable_type": "C", "role": "Identifier", "dataset_level": "Corporate", "embedding_text": "ce domain ; link id ; variable celnkid ; identifier used to link related records across domains. this may be a one-to-one or a one-to-many relationship. for exam"}, {"index_id": 325, "dataset": "CE", "variable": "CELNKGRP", "label": "Link Group ID", "core": "Perm", "variable_type": "C", "role": "Identifier", "dataset_level": "Corporate", "embedding_text": "ce domain ; link group id ; variable celnkgrp ; identifier used to link related records across domains. this will usually be a many-to-one relationship. for example, mu"}, {"index_id": 326, "dataset": "CE", "variable": "CETERM", "label": "Reported Term for the Clinical Event", "core": "Req", "variable_type": "C", "role": "Topic", "dataset_level": "Corporate", "embedding_text": "ce domain ; reported term for the clinical event ; variable ceterm ; term for the medical condition or event. most likely preprinted on crf."}, {"index_id": 327, "dataset": "CE", "variable": "CEMODIFY", "label": "Modified Reported Term", "core": "Perm", "variable_type": "C", "role": "Synonym Qualifier", "dataset_level": "Corporate", "embedding_text": "ce domain ; modified reported term ; variable cemodify ; if the value for --term is modified for coding purposes, then the modified text is placed here."}, {"index_id": 328, "dataset": "CE", "variable": "CELLT", "label": "Lowest Level Term", "core": "Perm", "variable_type": "C", "role": "Variable Qualifier", "dataset_level": "Corporate", "embedding_text": "ce domain ; lowest level term ; variable cellt ; meddra lowest level term."}, {"index_id": 329, "dataset": "CE", "variable": "CELLTCD", "label": "Lowest Level Term Code", "core": "Perm", "variable_type": "N", "role": "Variable Qualifier", "dataset_level": "Corporate", "embedding_text": "ce domain ; lowest level term code ; variable celltcd ; meddra lowest level term code."}, {"index_id": 330, "dataset": "CE", "variable": "CEDECOD", "label": "Dictionary-Derived Term", "core": "Perm", "variable_type": "C", "role": "Synonym Qualifier", "dataset_level": "Corporate", "embedding_text": "ce domain ; dictionary-derived term ; variable cedecod ; controlled terminology for the name of the clinical event. the sponsor is expected to provide the dictionary name and ve"}, {"index_id": 331, "dataset": "CE", "variable": "CEPTCD", "label": "Preferred Term Code", "core": "Perm", "variable_type": "N", "role": "Variable Qualifier", "dataset_level": "Corporate", "embedding_text": "ce domain ; preferred term code ; variable ceptcd ; meddra preferred term code."}, {"index_id": 332, "dataset": "CE", "variable": "CEHLT", "label": "High Level Term", "core": "Perm", "variable_type": "C", "role": "Variable Qualifier", "dataset_level": "Corporate", "embedding_text": "ce domain ; high level term ; variable cehlt ; meddra high level term from the primary path."}, {"index_id": 333, "dataset": "CE", "variable": "CEHLTCD", "label": "High Level Term Code", "core": "Perm", "variable_type": "N", "role": "Variable Qualifier", "dataset_level": "Corporate", "embedding_text": "ce domain ; high level term code ; variable cehltcd ; meddra high level term code from the primary path."}, {"index_id": 334, "dataset": "CE", "variable": "CEHLGT", "label": "High Level Group Term", "core": "Perm", "variable_type": "C", "role": "Variable Qualifier", "dataset_level": "Corporate", "embedding_text": "ce domain ; high level group term ; variable cehlgt ; meddra high level group term from the primary path."}, {"index_id": 335, "dataset": "CE", "variable": "CEHLGTCD", "label": "High Level Group Term Code", "core": "Perm", "variable_type": "N", "role": "Variable Qualifier", "dataset_level": "Corporate", "embedding_text": "ce domain ; high level group term code ; variable cehlgtcd ; meddra high level group term code from the primary path."}, {"index_id": 336, "dataset": "CE", "variable": "CECAT", "label": "Category for the Clinical Event", "core": "Perm", "variable_type": "C", "role": "Grouping Qualifier", "dataset_level": "Corporate", "embedding_text": "ce domain ; category for the clinical event ; variable cecat ; used to define a category of related records."}, {"index_id": 337, "dataset": "CE", "variable": "CESCAT", "label": "Subcategory for the Clinical Event", "core": "Perm", "variable_type": "C", "role": "Grouping Qualifier", "dataset_level": "Corporate", "embedding_text": "ce domain ; subcategory for the clinical event ; variable cescat ; a further categorization of the condition or event."}, {"index_id": 338, "dataset": "CE", "variable": "CEPRESP", "label": "Clinical Event Pre-specified", "core": "Perm", "variable_type": "C", "role": "Variable Qualifier", "dataset_level": "Corporate", "embedding_text": "ce domain ; clinical event pre-specified ; variable cepresp ; used to indicate whether the event in ceterm was prespecified. value is \"y\" for prespecified events and null for spontan"}, {"index_id": 339, "dataset": "CE", "variable": "CEOCCUR", "label": "Clinical Event Occurrence", "core": "Perm", "variable_type": "C", "role": "Record Qualifier", "dataset_level": "Corporate", "embedding_text": "ce domain ; clinical event occurrence ; variable ceoccur ; used when the occurrence of specific events is solicited, to indicate whether or not a clinical event occurred. values a"}, {"index_id": 340, "dataset": "CE", "variable": "CESTAT", "label": "Completion Status", "core": "Perm", "variable_type": "C", "role": "Record Qualifier", "dataset_level": "Corporate", "embedding_text": "ce domain ; completion status ; variable cestat ; the status indicates that a question from a prespecified list was not answered."}, {"index_id": 341, "dataset": "CE", "variable": "CEREASND", "label": "Reason Clinical Event Not Collected", "core": "Perm", "variable_type": "C", "role": "Record Qualifier", "dataset_level": "Corporate", "embedding_text": "ce domain ; reason clinical event not collected ; variable cereasnd ; describes the reason clinical event data was not collected. used in conjunction with cestat when value is \"not done\"."}, {"index_id": 342, "dataset": "CE", "variable": "CEBODSYS", "label": "Body System or Organ Class", "core": "Perm", "variable_type": "C", "role": "Record Qualifier", "dataset_level": "Corporate", "embedding_text": "ce domain ; body system or organ class ; variable cebodsys ; dictionary-derived. body system or organ class that is involved in an event or measurement from a standard hierarchy (e."}, {"index_id": 343, "dataset": "CE", "variable": "CEBDSYCD", "label": "Body System or Organ Class Code", "core": "Perm", "variable_type": "N", "role": "Variable Qualifier", "dataset_level": "Corporate", "embedding_text": "ce domain ; body system or organ class code ; variable cebdsycd ; meddra system organ class code corresponding to --bodsys assigned for analysis."}, {"index_id": 344, "dataset": "CE", "variable": "CESOC", "label": "Primary System Organ Class", "core": "Perm", "variable_type": "C", "role": "Variable Qualifier", "dataset_level": "Corporate", "embedding_text": "ce domain ; primary system organ class ; variable cesoc ; meddra primary system organ class associated with the event."}, {"index_id": 345, "dataset": "CE", "variable": "CESOCCD", "label": "Primary System Organ Class Code", "core": "Perm", "variable_type": "N", "role": "Variable Qualifier", "dataset_level": "Corporate", "embedding_text": "ce domain ; primary system organ class code ; variable cesoccd ; meddra primary system organ class code."}, {"index_id": 346, "dataset": "CE", "variable": "CELOC", "label": "Location of Event", "core": "Perm", "variable_type": "C", "role": "Record Qualifier", "dataset_level": "Corporate", "embedding_text": "ce domain ; location of event ; variable celoc ; describes anatomical location relevant for the event. example: \"arm\" for skin rash."}, {"index_id": 347, "dataset": "CE", "variable": "CELAT", "label": "Laterality", "core": "Perm", "variable_type": "C", "role": "Variable Qualifier", "dataset_level": "Corporate", "embedding_text": "ce domain ; laterality ; variable celat"}, {"index_id": 348, "dataset": "CE", "variable": "CESEV", "label": "Severity/Intensity", "core": "Perm", "variable_type": "C", "role": "Record Qualifier", "dataset_level": "Corporate", "embedding_text": "ce domain ; severity/intensity ; variable cesev ; the severity or intensity of the event. examples: \"mild\", \"moderate\", \"severe\"."}, {"index_id": 349, "dataset": "CE", "variable": "CEREL", "label": "Causality", "core": "Perm", "variable_type": "C", "role": "Record Qualifier", "dataset_level": "Corporate", "embedding_text": "ce domain ; causality ; variable cerel ; records the investigator's opinion as to the causality of the event to the treatment. ich e2a and e2b examples include \""}, {"index_id": 350, "dataset": "CE", "variable": "CEPATT", "label": "Pattern of Event", "core": "Perm", "variable_type": "C", "role": "Record Qualifier", "dataset_level": "Corporate", "embedding_text": "ce domain ; pattern of event ; variable cepatt ; used to indicate the pattern of the event over time. examples: \"intermittent\", \"continuous\", \"single event\"."}, {"index_id": 351, "dataset": "CE", "variable": "CEOUT", "label": "Outcome of Event", "core": "Perm", "variable_type": "C", "role": "Record Qualifier", "dataset_level": "Corporate", "embedding_text": "ce domain ; outcome of event ; variable ceout ; description of the outcome of an event. examples: \"recovered/resolved\", \"fatal\"."}, {"index_id": 352, "dataset": "CE", "variable": "CECONTRT", "label": "Concomitant or Additional Trtmnt Given", "core": "Perm", "variable_type": "C", "role": "Record Qualifier", "dataset_level": "Corporate", "embedding_text": "ce domain ; concomitant or additional trtmnt given ; variable cecontrt ; was another treatment given because of the occurrence of the event? valid values are \"y\", \"n\", and null."}, {"index_id": 353, "dataset": "CE", "variable": "CETOXGR", "label": "Standard Toxicity Grade", "core": "Perm", "variable_type": "C", "role": "Record Qualifier", "dataset_level": "Corporate", "embedding_text": "ce domain ; standard toxicity grade ; variable cetoxgr ; toxicity grade according to a standard toxicity scale (e.g., common terminology criteria for adverse events (ctcae) v3.0"}, {"index_id": 354, "dataset": "CE", "variable": "VISITNUM", "label": "Visit Number", "core": "Perm", "variable_type": "N", "role": "Timing", "dataset_level": "Corporate", "embedding_text": "ce domain ; visit number ; variable visitnum ; 1. clinical encounter number. 2. numeric version of visit, used for sorting."}, {"index_id": 355, "dataset": "CE", "variable": "VISIT", "label": "Visit Name", "core": "Perm", "variable_type": "C", "role": "Timing", "dataset_level": "Corporate", "embedding_text": "ce domain ; visit name ; variable visit ; 1. protocol-defined description of clinical encounter. 2. may be used in addition to visitnum and/or visitdy."}, {"index_id": 356, "dataset": "CE", "variable": "VISITDY", "label": "Planned Study Day of Visit", "core": "Perm", "variable_type": "N", "role": "Timing", "dataset_level": "Corporate", "embedding_text": "ce domain ; planned study day of visit ; variable visitdy ; planned study day of visit based upon rfstdtc in demographics. should be an integer."}, {"index_id": 357, "dataset": "CE", "variable": "TAETORD", "label": "Planned Order of Element within Arm", "core": "Perm", "variable_type": "N", "role": "Timing", "dataset_level": "Corporate", "embedding_text": "ce domain ; planned order of element within arm ; variable taetord ; number that gives the planned order of the element within the arm for the element in which the clinical event started."}, {"index_id": 358, "dataset": "CE", "variable": "EPOCH", "label": "Epoch", "core": "Perm", "variable_type": "C", "role": "Timing", "dataset_level": "Corporate", "embedding_text": "ce domain ; epoch ; variable epoch ; epoch associated with the start date/time of the clinical event."}, {"index_id": 359, "dataset": "CE", "variable": "CEDTC", "label": "Date/Time of Event Collection", "core": "Perm", "variable_type": "C", "role": "Timing", "dataset_level": "Corporate", "embedding_text": "ce domain ; date/time of event collection ; variable cedtc ; collection date and time for the clinical event observation represented in iso 8601 character format."}, {"index_id": 360, "dataset": "CE", "variable": "CESTDTC", "label": "Start Date/Time of Clinical Event", "core": "Perm", "variable_type": "C", "role": "Timing", "dataset_level": "Corporate", "embedding_text": "ce domain ; start date/time of clinical event ; variable cestdtc ; start date/time of the clinical event represented in iso 8601 character format."}, {"index_id": 361, "dataset": "CE", "variable": "CEENDTC", "label": "End Date/Time of Clinical Event", "core": "Perm", "variable_type": "C", "role": "Timing", "dataset_level": "Corporate", "embedding_text": "ce domain ; end date/time of clinical event ; variable ceendtc ; end date/time of the clinical event, represented in iso 8601 character format."}, {"index_id": 362, "dataset": "CE", "variable": "CEDY", "label": "Study Day of Event Collection", "core": "Perm", "variable_type": "N", "role": "Timing", "dataset_level": "Corporate", "embedding_text": "ce domain ; study day of event collection ; variable cedy ; study day of clinical event collection, measured as integer days. algorithm for calculations must be relative to the spo"}, {"index_id": 363, "dataset": "CE", "variable": "CESTDY", "label": "Study Day of Start of Event", "core": "Perm", "variable_type": "N", "role": "Timing", "dataset_level": "Corporate", "embedding_text": "ce domain ; study day of start of event ; variable cestdy ; actual study day of start of the clinical event expressed in integer days relative to the sponsor-defined rfstdtc in dem"}, {"index_id": 364, "dataset": "CE", "variable": "CEENDY", "label": "Study Day of End of Event", "core": "Perm", "variable_type": "N", "role": "Timing", "dataset_level": "Corporate", "embedding_text": "ce domain ; study day of end of event ; variable ceendy ; actual study day of end of the clinical event expressed in integer days relative to the sponsor-defined rfstdtc in demog"}, {"index_id": 365, "dataset": "CE", "variable": "CEDUR", "label": "Collected Duration", "core": "Perm", "variable_type": "C", "role": "Timing", "dataset_level": "Corporate", "embedding_text": "ce domain ; collected duration ; variable cedur ; collected duration of an event, intervention, or finding. used only if collected on the crf and not derived."}, {"index_id": 366, "dataset": "CE", "variable": "CESTRF", "label": "Start Relative to Reference Period", "core": "Perm", "variable_type": "C", "role": "Timing", "dataset_level": "Corporate", "embedding_text": "ce domain ; start relative to reference period ; variable cestrf ; describes the start of the clinical event relative to the sponsor-defined reference period. the sponsor-defined referenc"}, {"index_id": 367, "dataset": "CE", "variable": "CEENRF", "label": "End Relative to Reference Period", "core": "Perm", "variable_type": "C", "role": "Timing", "dataset_level": "Corporate", "embedding_text": "ce domain ; end relative to reference period ; variable ceenrf ; describes the end of the event relative to the sponsor-defined reference period. the sponsor-defined reference period is"}, {"index_id": 368, "dataset": "CE", "variable": "CEEVLINT", "label": "Evaluation Interval", "core": "Perm", "variable_type": "C", "role": "Timing", "dataset_level": "Corporate", "embedding_text": "ce domain ; evaluation interval ; variable ceevlint ; duration of interval associated with an observation such as a finding --testcd. usually used with --dtc to describe an i"}, {"index_id": 369, "dataset": "CE", "variable": "CEEVINTX", "label": "Evaluation Interval Text", "core": "Perm", "variable_type": "C", "role": "Timing", "dataset_level": "Corporate", "embedding_text": "ce domain ; evaluation interval text ; variable ceevintx"}, {"index_id": 370, "dataset": "CE", "variable": "CESTRTPT", "label": "Start Relative to Reference Time Point", "core": "Perm", "variable_type": "C", "role": "Timing", "dataset_level": "Corporate", "embedding_text": "ce domain ; start relative to reference time point ; variable cestrtpt ; identifies the start of the observation as being before or after the reference time point defined by variable cesttpt. \\"}, {"index_id": 371, "dataset": "CE", "variable": "CESTTPT", "label": "Start Reference Time Point", "core": "Perm", "variable_type": "C", "role": "Timing", "dataset_level": "Corporate", "embedding_text": "ce domain ; start reference time point ; variable cesttpt ; description or date/time in iso 8601 character format of the sponsor-defined reference point referred to by --strtpt. ex"}, {"index_id": 372, "dataset": "CE", "variable": "CEENRTPT", "label": "End Relative to Reference Time Point", "core": "Perm", "variable_type": "C", "role": "Timing", "dataset_level": "Corporate", "embedding_text": "ce domain ; end relative to reference time point ; variable ceenrtpt ; identifies the end of the observation as being before or after the sponsor-defined reference time point defined by varia"}, {"index_id": 373, "dataset": "CE", "variable": "CEENTPT", "label": "End Reference Time Point", "core": "Perm", "variable_type": "C", "role": "Timing", "dataset_level": "Corporate", "embedding_text": "ce domain ; end reference time point ; variable ceentpt ; description or date/time in iso 8601 character format of the reference point referred to by ceenrtpt. examples: \"2003-12"}, {"index_id": 374, "dataset": "CE", "variable": "ADASSEVT", "label": "Associated Events", "core": "Supp", "variable_type": "C", "role": "", "dataset_level": "Corporate", "embedding_text": "ce domain ; associated events ; variable adassevt"}, {"index_id": 375, "dataset": "CE", "variable": "ADJACTFL", "label": "Adjudication AE Active Event Flag", "core": "Supp", "variable_type": "C", "role": "", "dataset_level": "Corporate", "embedding_text": "ce domain ; adjudication ae active event flag ; variable adjactfl"}, {"index_id": 376, "dataset": "CE", "variable": "ADJCYCLE", "label": "Cycle of Adjudication", "core": "Supp", "variable_type": "C", "role": "", "dataset_level": "Corporate", "embedding_text": "ce domain ; cycle of adjudication ; variable adjcycle"}, {"index_id": 377, "dataset": "CE", "variable": "ADJDUPEV", "label": "Duplicated Event Flag", "core": "Supp", "variable_type": "C", "role": "", "dataset_level": "Corporate", "embedding_text": "ce domain ; duplicated event flag ; variable adjdupev"}, {"index_id": 378, "dataset": "CE", "variable": "ADJFCYFL", "label": "Final Adjudication Cycle Flag", "core": "Supp", "variable_type": "C", "role": "", "dataset_level": "Corporate", "embedding_text": "ce domain ; final adjudication cycle flag ; variable adjfcyfl"}, {"index_id": 379, "dataset": "CE", "variable": "ADJSIGN", "label": "Adjudicator e-Signature", "core": "Supp", "variable_type": "C", "role": "", "dataset_level": "Corporate", "embedding_text": "ce domain ; adjudicator e-signature ; variable adjsign"}, {"index_id": 380, "dataset": "CE", "variable": "ADJTYPE", "label": "Type of Adjudication", "core": "Supp", "variable_type": "C", "role": "", "dataset_level": "Corporate", "embedding_text": "ce domain ; type of adjudication ; variable adjtype"}, {"index_id": 381, "dataset": "CE", "variable": "ADMDTC", "label": "Admission Date/Time", "core": "Supp", "variable_type": "C", "role": "", "dataset_level": "Corporate", "embedding_text": "ce domain ; admission date/time ; variable admdtc"}, {"index_id": 382, "dataset": "CE", "variable": "BSOTH", "label": "Specify Other B Symptoms", "core": "Supp", "variable_type": "C", "role": "", "dataset_level": "Corporate", "embedding_text": "ce domain ; specify other b symptoms ; variable bsoth"}, {"index_id": 383, "dataset": "CE", "variable": "CEDTH", "label": "Death Caused by Event", "core": "Supp", "variable_type": "C", "role": "", "dataset_level": "Corporate", "embedding_text": "ce domain ; death caused by event ; variable cedth"}, {"index_id": 384, "dataset": "CE", "variable": "CEEVAL", "label": "Evaluator", "core": "Supp", "variable_type": "C", "role": "", "dataset_level": "Corporate", "embedding_text": "ce domain ; evaluator ; variable ceeval"}, {"index_id": 385, "dataset": "CE", "variable": "CEEVALID", "label": "Evaluator Identifier", "core": "Supp", "variable_type": "C", "role": "", "dataset_level": "Corporate", "embedding_text": "ce domain ; evaluator identifier ; variable ceevalid"}, {"index_id": 386, "dataset": "CE", "variable": "CELOCOTH", "label": "Other Location of Event", "core": "Supp", "variable_type": "C", "role": "", "dataset_level": "Corporate", "embedding_text": "ce domain ; other location of event ; variable celocoth"}, {"index_id": 387, "dataset": "CE", "variable": "CESPFY", "label": "Specification of CE Term", "core": "Supp", "variable_type": "C", "role": "", "dataset_level": "Corporate", "embedding_text": "ce domain ; specification of ce term ; variable cespfy"}, {"index_id": 388, "dataset": "CE", "variable": "CETERMSP", "label": "Reported Term Clinical Event, Specify", "core": "Supp", "variable_type": "C", "role": "", "dataset_level": "Corporate", "embedding_text": "ce domain ; reported term clinical event, specify ; variable cetermsp"}, {"index_id": 389, "dataset": "CE", "variable": "CRSDES", "label": "CRS Description", "core": "Supp", "variable_type": "C", "role": "", "dataset_level": "Corporate", "embedding_text": "ce domain ; crs description ; variable crsdes"}, {"index_id": 390, "dataset": "CE", "variable": "CRSDES1", "label": "CRS Description", "core": "Supp", "variable_type": "C", "role": "", "dataset_level": "Corporate", "embedding_text": "ce domain ; crs description ; variable crsdes1"}, {"index_id": 391, "dataset": "CE", "variable": "CRSDES2", "label": "CRS Description", "core": "Supp", "variable_type": "C", "role": "", "dataset_level": "Corporate", "embedding_text": "ce domain ; crs description ; variable crsdes2"}, {"index_id": 392, "dataset": "CE", "variable": "CRSDES3", "label": "CRS Description", "core": "Supp", "variable_type": "C", "role": "", "dataset_level": "Corporate", "embedding_text": "ce domain ; crs description ; variable crsdes3"}, {"index_id": 393, "dataset": "CE", "variable": "CRSDES4", "label": "CRS Description", "core": "Supp", "variable_type": "C", "role": "", "dataset_level": "Corporate", "embedding_text": "ce domain ; crs description ; variable crsdes4"}, {"index_id": 394, "dataset": "CE", "variable": "CRSDES5", "label": "CRS Description", "core": "Supp", "variable_type": "C", "role": "", "dataset_level": "Corporate", "embedding_text": "ce domain ; crs description ; variable crsdes5"}, {"index_id": 395, "dataset": "CE", "variable": "CRSDES6", "label": "CRS Description", "core": "Supp", "variable_type": "C", "role": "", "dataset_level": "Corporate", "embedding_text": "ce domain ; crs description ; variable crsdes6"}, {"index_id": 396, "dataset": "CE", "variable": "CRSDES7", "label": "CRS Description", "core": "Supp", "variable_type": "C", "role": "", "dataset_level": "Corporate", "embedding_text": "ce domain ; crs description ; variable crsdes7"}, {"index_id": 397, "dataset": "CE", "variable": "CRSDES8", "label": "CRS Description", "core": "Supp", "variable_type": "C", "role": "", "dataset_level": "Corporate", "embedding_text": "ce domain ; crs description ; variable crsdes8"}, {"index_id": 398, "dataset": "CE", "variable": "CRSDES9", "label": "CRS Description", "core": "Supp", "variable_type": "C", "role": "", "dataset_level": "Corporate", "embedding_text": "ce domain ; crs description ; variable crsdes9"}, {"index_id": 399, "dataset": "CE", "variable": "CTCAE_V", "label": "CTCAE Version", "core": "Supp", "variable_type": "C", "role": "", "dataset_level": "Corporate", "embedding_text": "ce domain ; ctcae version ; variable ctcae_v"}, {"index_id": 400, "dataset": "CE", "variable": "CVELOCO", "label": "Location of Hemorrhage Other, Specify", "core": "Supp", "variable_type": "C", "role": "", "dataset_level": "Corporate", "embedding_text": "ce domain ; location of hemorrhage other, specify ; variable cveloco"}, {"index_id": 401, "dataset": "CE", "variable": "DISCHDTC", "label": "Discharge Date/Time", "core": "Supp", "variable_type": "C", "role": "", "dataset_level": "Corporate", "embedding_text": "ce domain ; discharge date/time ; variable dischdtc"}, {"index_id": 402, "dataset": "CE", "variable": "EVADJASO", "label": "Event Sent to Committee for Furth Assmnt", "core": "Supp", "variable_type": "C", "role": "", "dataset_level": "Corporate", "embedding_text": "ce domain ; event sent to committee for furth assmnt ; variable evadjaso"}, {"index_id": 403, "dataset": "CE", "variable": "EVTN", "label": "Event Tracking Number", "core": "Supp", "variable_type": "C", "role": "", "dataset_level": "Corporate", "embedding_text": "ce domain ; event tracking number ; variable evtn"}, {"index_id": 404, "dataset": "CE", "variable": "HFDESC01", "label": "Description of Urgent/Without Hosp HF 1", "core": "Supp", "variable_type": "C", "role": "", "dataset_level": "Corporate", "embedding_text": "ce domain ; description of urgent/without hosp hf 1 ; variable hfdesc01"}, {"index_id": 405, "dataset": "CE", "variable": "HFDESC02", "label": "Description of Urgent/Without Hosp HF 2", "core": "Supp", "variable_type": "C", "role": "", "dataset_level": "Corporate", "embedding_text": "ce domain ; description of urgent/without hosp hf 2 ; variable hfdesc02"}, {"index_id": 406, "dataset": "CE", "variable": "HFDESC03", "label": "Description of Urgent/Without Hosp HF 3", "core": "Supp", "variable_type": "C", "role": "", "dataset_level": "Corporate", "embedding_text": "ce domain ; description of urgent/without hosp hf 3 ; variable hfdesc03"}, {"index_id": 407, "dataset": "CE", "variable": "HFDESC04", "label": "Description of Urgent/Without Hosp HF 4", "core": "Supp", "variable_type": "C", "role": "", "dataset_level": "Corporate", "embedding_text": "ce domain ; description of urgent/without hosp hf 4 ; variable hfdesc04"}, {"index_id": 408, "dataset": "CE", "variable": "HFDESC05", "label": "Description of Urgent/Without Hosp HF 5", "core": "Supp", "variable_type": "C", "role": "", "dataset_level": "Corporate", "embedding_text": "ce domain ; description of urgent/without hosp hf 5 ; variable hfdesc05"}, {"index_id": 409, "dataset": "CE", "variable": "HFDESC06", "label": "Description of Urgent/Without Hosp HF 6", "core": "Supp", "variable_type": "C", "role": "", "dataset_level": "Corporate", "embedding_text": "ce domain ; description of urgent/without hosp hf 6 ; variable hfdesc06"}, {"index_id": 410, "dataset": "CE", "variable": "HFDESC07", "label": "Description of Urgent/Without Hosp HF 7", "core": "Supp", "variable_type": "C", "role": "", "dataset_level": "Corporate", "embedding_text": "ce domain ; description of urgent/without hosp hf 7 ; variable hfdesc07"}, {"index_id": 411, "dataset": "CE", "variable": "HFDESC08", "label": "Description of Urgent/Without Hosp HF 8", "core": "Supp", "variable_type": "C", "role": "", "dataset_level": "Corporate", "embedding_text": "ce domain ; description of urgent/without hosp hf 8 ; variable hfdesc08"}, {"index_id": 412, "dataset": "CE", "variable": "HFDESC09", "label": "Description of Urgent/Without Hosp HF 9", "core": "Supp", "variable_type": "C", "role": "", "dataset_level": "Corporate", "embedding_text": "ce domain ; description of urgent/without hosp hf 9 ; variable hfdesc09"}, {"index_id": 413, "dataset": "CE", "variable": "HFDESC10", "label": "Description of Urgent/Without Hosp HF 10", "core": "Supp", "variable_type": "C", "role": "", "dataset_level": "Corporate", "embedding_text": "ce domain ; description of urgent/without hosp hf 10 ; variable hfdesc10"}, {"index_id": 414, "dataset": "CE", "variable": "HFSPEOTH", "label": "Symptoms/Signs/PE Findings of HF, Other", "core": "Supp", "variable_type": "C", "role": "", "dataset_level": "Corporate", "embedding_text": "ce domain ; symptoms/signs/pe findings of hf, other ; variable hfspeoth"}, {"index_id": 415, "dataset": "CE", "variable": "HFUOPV", "label": "Event Identified During Unsch. Outpt Vis", "core": "Supp", "variable_type": "C", "role": "", "dataset_level": "Corporate", "embedding_text": "ce domain ; event identified during unsch. outpt vis ; variable hfuopv"}, {"index_id": 416, "dataset": "CE", "variable": "HRFLA", "label": "Heart Failure Adjudication", "core": "Supp", "variable_type": "C", "role": "", "dataset_level": "Corporate", "embedding_text": "ce domain ; heart failure adjudication ; variable hrfla"}, {"index_id": 417, "dataset": "CE", "variable": "ICNDES", "label": "ICANS Description", "core": "Supp", "variable_type": "C", "role": "", "dataset_level": "Corporate", "embedding_text": "ce domain ; icans description ; variable icndes"}, {"index_id": 418, "dataset": "CE", "variable": "ICNDES1", "label": "ICANS Description", "core": "Supp", "variable_type": "C", "role": "", "dataset_level": "Corporate", "embedding_text": "ce domain ; icans description ; variable icndes1"}, {"index_id": 419, "dataset": "CE", "variable": "ICNDES2", "label": "ICANS Description", "core": "Supp", "variable_type": "C", "role": "", "dataset_level": "Corporate", "embedding_text": "ce domain ; icans description ; variable icndes2"}, {"index_id": 420, "dataset": "CE", "variable": "ICNDES3", "label": "ICANS Description", "core": "Supp", "variable_type": "C", "role": "", "dataset_level": "Corporate", "embedding_text": "ce domain ; icans description ; variable icndes3"}, {"index_id": 421, "dataset": "CE", "variable": "ICNDES4", "label": "ICANS Description", "core": "Supp", "variable_type": "C", "role": "", "dataset_level": "Corporate", "embedding_text": "ce domain ; icans description ; variable icndes4"}, {"index_id": 422, "dataset": "CE", "variable": "ICNDES5", "label": "ICANS Description", "core": "Supp", "variable_type": "C", "role": "", "dataset_level": "Corporate", "embedding_text": "ce domain ; icans description ; variable icndes5"}, {"index_id": 423, "dataset": "CE", "variable": "ICNDES6", "label": "ICANS Description", "core": "Supp", "variable_type": "C", "role": "", "dataset_level": "Corporate", "embedding_text": "ce domain ; icans description ; variable icndes6"}, {"index_id": 424, "dataset": "CE", "variable": "ICNDES7", "label": "ICANS Description", "core": "Supp", "variable_type": "C", "role": "", "dataset_level": "Corporate", "embedding_text": "ce domain ; icans description ; variable icndes7"}, {"index_id": 425, "dataset": "CE", "variable": "ICNDES8", "label": "ICANS Description", "core": "Supp", "variable_type": "C", "role": "", "dataset_level": "Corporate", "embedding_text": "ce domain ; icans description ; variable icndes8"}, {"index_id": 426, "dataset": "CE", "variable": "ICNDES9", "label": "ICANS Description", "core": "Supp", "variable_type": "C", "role": "", "dataset_level": "Corporate", "embedding_text": "ce domain ; icans description ; variable icndes9"}, {"index_id": 427, "dataset": "CE", "variable": "MALADJ", "label": "Malignancy Adjudication", "core": "Supp", "variable_type": "C", "role": "", "dataset_level": "Corporate", "embedding_text": "ce domain ; malignancy adjudication ; variable maladj"}, {"index_id": 428, "dataset": "CE", "variable": "MEDDRAV", "label": "MedDRA Version", "core": "Supp", "variable_type": "C", "role": "", "dataset_level": "Corporate", "embedding_text": "ce domain ; meddra version ; variable meddrav"}, {"index_id": 429, "dataset": "CE", "variable": "MIADJ", "label": "Myocardiac Infarction Adjudication", "core": "Supp", "variable_type": "C", "role": "", "dataset_level": "Corporate", "embedding_text": "ce domain ; myocardiac infarction adjudication ; variable miadj"}, {"index_id": 430, "dataset": "CE", "variable": "MODULE", "label": "Source Module Short Name", "core": "Supp", "variable_type": "C", "role": "", "dataset_level": "Corporate", "embedding_text": "ce domain ; source module short name ; variable module"}, {"index_id": 431, "dataset": "CE", "variable": "MRSCURR", "label": "MRS at Curr Vis or 90 D After Cerebr Ev", "core": "Supp", "variable_type": "C", "role": "", "dataset_level": "Corporate", "embedding_text": "ce domain ; mrs at curr vis or 90 d after cerebr ev ; variable mrscurr"}, {"index_id": 432, "dataset": "CE", "variable": "MRSDURH", "label": "MRS During Cerebrovascular Event Hosp", "core": "Supp", "variable_type": "C", "role": "", "dataset_level": "Corporate", "embedding_text": "ce domain ; mrs during cerebrovascular event hosp ; variable mrsdurh"}, {"index_id": 433, "dataset": "CE", "variable": "MRSPRIOR", "label": "MRS Prior to Cerebrovascular Event", "core": "Supp", "variable_type": "C", "role": "", "dataset_level": "Corporate", "embedding_text": "ce domain ; mrs prior to cerebrovascular event ; variable mrsprior"}, {"index_id": 434, "dataset": "CE", "variable": "PPXPMED", "label": "Any Prophyla Med. Prior Study Drug Infus", "core": "Supp", "variable_type": "C", "role": "", "dataset_level": "Corporate", "embedding_text": "ce domain ; any prophyla med. prior study drug infus ; variable ppxpmed"}, {"index_id": 435, "dataset": "CE", "variable": "SCAADJ", "label": "Serious Cardiac Arrhythmia Adjudication", "core": "Supp", "variable_type": "C", "role": "", "dataset_level": "Corporate", "embedding_text": "ce domain ; serious cardiac arrhythmia adjudication ; variable scaadj"}, {"index_id": 436, "dataset": "CE", "variable": "SOLARSEV", "label": "Maximum Intensity after end of eDiary", "core": "Supp", "variable_type": "C", "role": "", "dataset_level": "Corporate", "embedding_text": "ce domain ; maximum intensity after end of ediary ; variable solarsev"}, {"index_id": 437, "dataset": "CE", "variable": "STRKAJD", "label": "Stroke Event Adjudication", "core": "Supp", "variable_type": "C", "role": "", "dataset_level": "Corporate", "embedding_text": "ce domain ; stroke event adjudication ; variable strkajd"}, {"index_id": 438, "dataset": "CE", "variable": "VISITDTC", "label": "Date of Visit", "core": "Supp", "variable_type": "C", "role": "", "dataset_level": "Corporate", "embedding_text": "ce domain ; date of visit ; variable visitdtc"}, {"index_id": 439, "dataset": "CM", "variable": "STUDYID", "label": "Study Identifier", "core": "Req", "variable_type": "C", "role": "Identifier", "dataset_level": "Corporate", "embedding_text": "cm domain ; study identifier ; variable studyid ; unique identifier for a study."}, {"index_id": 440, "dataset": "CM", "variable": "DOMAIN", "label": "Domain Abbreviation", "core": "Req", "variable_type": "C", "role": "Identifier", "dataset_level": "Corporate", "embedding_text": "cm domain ; domain abbreviation ; variable domain ; two-character abbreviation for the domain."}, {"index_id": 441, "dataset": "CM", "variable": "USUBJID", "label": "Unique Subject Identifier", "core": "Req", "variable_type": "C", "role": "Identifier", "dataset_level": "Corporate", "embedding_text": "cm domain ; unique subject identifier ; variable usubjid ; identifier used to uniquely identify a subject across all studies for all applications or submissions involving the prod"}, {"index_id": 442, "dataset": "CM", "variable": "SPDEVID", "label": "Sponsor Device Identifier", "core": "Perm", "variable_type": "C", "role": "Identifier", "dataset_level": "Corporate", "embedding_text": "cm domain ; sponsor device identifier ; variable spdevid ; sponsor-defined identifier for a device."}, {"index_id": 443, "dataset": "CM", "variable": "CMSEQ", "label": "Sequence Number", "core": "Req", "variable_type": "N", "role": "Identifier", "dataset_level": "Corporate", "embedding_text": "cm domain ; sequence number ; variable cmseq ; sequence number to ensure uniqueness of subject records within a domain. may be any valid number."}, {"index_id": 444, "dataset": "CM", "variable": "CMGRPID", "label": "Group ID", "core": "Perm", "variable_type": "C", "role": "Identifier", "dataset_level": "Corporate", "embedding_text": "cm domain ; group id ; variable cmgrpid ; used to tie together a block of related records in a single domain for a subject."}, {"index_id": 445, "dataset": "CM", "variable": "CMREFID", "label": "Reference ID", "core": "Perm", "variable_type": "C", "role": "Identifier", "dataset_level": "Corporate", "embedding_text": "cm domain ; reference id ; variable cmrefid ; optional internal or external identifier such as lab specimen id, or uuid for an ecg waveform or a medical image."}, {"index_id": 446, "dataset": "CM", "variable": "CMSPID", "label": "Sponsor-Defined Identifier", "core": "Perm", "variable_type": "C", "role": "Identifier", "dataset_level": "Corporate", "embedding_text": "cm domain ; sponsor-defined identifier ; variable cmspid ; sponsor-defined reference number. example: a number preprinted on the crf as an explicit line identifier or record ident"}, {"index_id": 447, "dataset": "CM", "variable": "CMLNKID", "label": "Link ID", "core": "Perm", "variable_type": "C", "role": "Identifier", "dataset_level": "Corporate", "embedding_text": "cm domain ; link id ; variable cmlnkid ; identifier used to link related records across domains. this may be a one-to-one or a one-to-many relationship. for exam"}, {"index_id": 448, "dataset": "CM", "variable": "CMLNKGRP", "label": "Link Group ID", "core": "Perm", "variable_type": "C", "role": "Identifier", "dataset_level": "Corporate", "embedding_text": "cm domain ; link group id ; variable cmlnkgrp ; identifier used to link related records across domains. this will usually be a many-to-one relationship. for example, mu"}, {"index_id": 449, "dataset": "CM", "variable": "CMTRT", "label": "Reported Name of Drug, Med, or Therapy", "core": "Req", "variable_type": "C", "role": "Topic", "dataset_level": "Corporate", "embedding_text": "cm domain ; reported name of drug, med, or therapy ; variable cmtrt ; verbatim medication name that is either preprinted or collected on a crf."}, {"index_id": 450, "dataset": "CM", "variable": "CMMODIFY", "label": "Modified Reported Name", "core": "Perm", "variable_type": "C", "role": "Synonym Qualifier", "dataset_level": "Corporate", "embedding_text": "cm domain ; modified reported name ; variable cmmodify ; if cmtrt is modified to facilitate coding, then cmmodify will contain the modified text."}, {"index_id": 451, "dataset": "CM", "variable": "CMDECOD", "label": "Standardized Medication Name", "core": "Perm", "variable_type": "C", "role": "Synonym Qualifier", "dataset_level": "Corporate", "embedding_text": "cm domain ; standardized medication name ; variable cmdecod ; standardized or dictionary-derived text description of cmtrt or cmmodify. equivalent to the generic drug name in who dru"}, {"index_id": 452, "dataset": "CM", "variable": "CMCAT", "label": "Category for Medication", "core": "Perm", "variable_type": "C", "role": "Grouping Qualifier", "dataset_level": "Corporate", "embedding_text": "cm domain ; category for medication ; variable cmcat ; used to define a category of medications/treatment. examples: \"prior\", \"concomitant\", \"anti-cancer medication\", \"general"}, {"index_id": 453, "dataset": "CM", "variable": "CMSCAT", "label": "Subcategory for Medication", "core": "Perm", "variable_type": "C", "role": "Grouping Qualifier", "dataset_level": "Corporate", "embedding_text": "cm domain ; subcategory for medication ; variable cmscat ; a further categorization of medications/treatment. examples: \"chemotherapy\", \"hormonal therapy\", \"alternative therapy\"."}, {"index_id": 454, "dataset": "CM", "variable": "CMPRESP", "label": "CM Pre-specified", "core": "Perm", "variable_type": "C", "role": "Variable Qualifier", "dataset_level": "Corporate", "embedding_text": "cm domain ; cm pre-specified ; variable cmpresp ; used to indicate whether (\"y\"/null) information about the use of a specific medication was solicited on the crf."}, {"index_id": 455, "dataset": "CM", "variable": "CMOCCUR", "label": "CM Occurrence", "core": "Perm", "variable_type": "C", "role": "Record Qualifier", "dataset_level": "Corporate", "embedding_text": "cm domain ; cm occurrence ; variable cmoccur ; when the use of a specific medication is solicited. cmoccur is used to indicate whether (\"y\"/\"n\") use of the medication"}, {"index_id": 456, "dataset": "CM", "variable": "CMREASOC", "label": "Reason for Occur Value", "core": "Perm", "variable_type": "C", "role": "", "dataset_level": "Corporate", "embedding_text": "cm domain ; reason for occur value ; variable cmreasoc"}, {"index_id": 457, "dataset": "CM", "variable": "CMSTAT", "label": "Completion Status", "core": "Perm", "variable_type": "C", "role": "Record Qualifier", "dataset_level": "Corporate", "embedding_text": "cm domain ; completion status ; variable cmstat ; used to indicate that a question about the occurrence of a prespecified intervention was not answered. should be null or"}, {"index_id": 458, "dataset": "CM", "variable": "CMREASND", "label": "Reason Medication Not Collected", "core": "Perm", "variable_type": "C", "role": "Record Qualifier", "dataset_level": "Corporate", "embedding_text": "cm domain ; reason medication not collected ; variable cmreasnd ; reason not done. used in conjunction with cmstat when value is \"not done\"."}, {"index_id": 459, "dataset": "CM", "variable": "CMINDC", "label": "Indication", "core": "Perm", "variable_type": "C", "role": "Record Qualifier", "dataset_level": "Corporate", "embedding_text": "cm domain ; indication ; variable cmindc ; denotes why a medication was taken or administered. examples: \"nausea\", \"hypertension\"."}, {"index_id": 460, "dataset": "CM", "variable": "CMCLAS", "label": "Medication Class", "core": "Perm", "variable_type": "C", "role": "Variable Qualifier", "dataset_level": "Corporate", "embedding_text": "cm domain ; medication class ; variable cmclas ; drug class. may be obtained from coding. when coding to a single class, populate with class value. if using a dictionary"}, {"index_id": 461, "dataset": "CM", "variable": "CMCLASCD", "label": "Medication Class Code", "core": "Perm", "variable_type": "C", "role": "Variable Qualifier", "dataset_level": "Corporate", "embedding_text": "cm domain ; medication class code ; variable cmclascd ; class code corresponding to cmclas. drug class. may be obtained from coding. when coding to a single class, populate wit"}, {"index_id": 462, "dataset": "CM", "variable": "CMDOSE", "label": "Dose per Administration", "core": "Perm", "variable_type": "N", "role": "Record Qualifier", "dataset_level": "Corporate", "embedding_text": "cm domain ; dose per administration ; variable cmdose ; amount of cmtrt given. not populated when cmdostxt is populated."}, {"index_id": 463, "dataset": "CM", "variable": "CMDOSTXT", "label": "Dose Description", "core": "Perm", "variable_type": "C", "role": "Record Qualifier", "dataset_level": "Corporate", "embedding_text": "cm domain ; dose description ; variable cmdostxt ; dosing amounts or a range of dosing information collected in text form. units may be stored in cmdosu. examples: \"200-40"}, {"index_id": 464, "dataset": "CM", "variable": "CMDOSU", "label": "Dose Units", "core": "Perm", "variable_type": "C", "role": "Variable Qualifier", "dataset_level": "Corporate", "embedding_text": "cm domain ; dose units ; variable cmdosu ; units for cmdose, cmdostot, or cmdostxt. examples: \"ng\", \"mg\", \"mg/kg\"."}, {"index_id": 465, "dataset": "CM", "variable": "CMDOSFRM", "label": "Dose Form", "core": "Perm", "variable_type": "C", "role": "Variable Qualifier", "dataset_level": "Corporate", "embedding_text": "cm domain ; dose form ; variable cmdosfrm ; dose form for cmtrt. examples: \"tablet\", \"lotion\"."}, {"index_id": 466, "dataset": "CM", "variable": "CMDOSFRQ", "label": "Dosing Frequency per Interval", "core": "Perm", "variable_type": "C", "role": "Record Qualifier", "dataset_level": "Corporate", "embedding_text": "cm domain ; dosing frequency per interval ; variable cmdosfrq ; usually expressed as the number of repeated administrations of cmdose within a specific time period. examples: \"bid\" (tw"}, {"index_id": 467, "dataset": "CM", "variable": "CMDOSTOT", "label": "Total Daily Dose", "core": "Perm", "variable_type": "N", "role": "Record Qualifier", "dataset_level": "Corporate", "embedding_text": "cm domain ; total daily dose ; variable cmdostot ; total daily dose of cmtrt using the units in cmdosu. used when dosing is collected as total daily dose. total dose over"}, {"index_id": 468, "dataset": "CM", "variable": "CMDOSRGM", "label": "Intended Dose Regimen", "core": "Perm", "variable_type": "C", "role": "Record Qualifier", "dataset_level": "Corporate", "embedding_text": "cm domain ; intended dose regimen ; variable cmdosrgm ; text description of the (intended) schedule or regimen for the intervention. example: \"two weeks on, two weeks off\"."}, {"index_id": 469, "dataset": "CM", "variable": "CMROUTE", "label": "Route of Administration", "core": "Perm", "variable_type": "C", "role": "Variable Qualifier", "dataset_level": "Corporate", "embedding_text": "cm domain ; route of administration ; variable cmroute ; route of administration for the intervention. examples: \"oral\", \"intravenous\"."}, {"index_id": 470, "dataset": "CM", "variable": "CMLOC", "label": "Location of Administration", "core": "Perm", "variable_type": "C", "role": "Record Qualifier", "dataset_level": "Corporate", "embedding_text": "cm domain ; location of administration ; variable cmloc ; anatomical location of an intervention, such as an injection site. example: arm for an injection."}, {"index_id": 471, "dataset": "CM", "variable": "CMLAT", "label": "Laterality", "core": "Perm", "variable_type": "C", "role": "Variable Qualifier", "dataset_level": "Corporate", "embedding_text": "cm domain ; laterality ; variable cmlat ; qualifier for anatomical location further detailing laterality of the intervention administration. examples: \"left\", \"ri"}, {"index_id": 472, "dataset": "CM", "variable": "CMTRTV", "label": "Treatment Vehicle", "core": "Perm", "variable_type": "C", "role": "Record Qualifier", "dataset_level": "Corporate", "embedding_text": "cm domain ; treatment vehicle ; variable cmtrtv ; vehicle for administration of treatment, such as a liquid in which the treatment drug is dissolved. example: \"saline\"."}, {"index_id": 473, "dataset": "CM", "variable": "CMVAMT", "label": "Treatment Vehicle Amount", "core": "Perm", "variable_type": "N", "role": "Record Qualifier", "dataset_level": "Corporate", "embedding_text": "cm domain ; treatment vehicle amount ; variable cmvamt ; amount of the prepared product (treatment + vehicle) administered or given. note: should not be diluent amount alone."}, {"index_id": 474, "dataset": "CM", "variable": "CMVAMTU", "label": "Treatment Vehicle Amount Units", "core": "Perm", "variable_type": "C", "role": "Variable Qualifier", "dataset_level": "Corporate", "embedding_text": "cm domain ; treatment vehicle amount units ; variable cmvamtu ; units for the prepared product (treatment + vehicle). examples: \"ml\", \"mg\"."}, {"index_id": 475, "dataset": "CM", "variable": "CMADJ", "label": "Reason for Dose Adjustment", "core": "Perm", "variable_type": "C", "role": "Record Qualifier", "dataset_level": "Corporate", "embedding_text": "cm domain ; reason for dose adjustment ; variable cmadj ; describes reason or explanation of why a dose is adjusted. examples: \"adverse event\", \"insufficient response\", \"non-medi"}, {"index_id": 476, "dataset": "CM", "variable": "CMRSDISC", "label": "Reason the Intervention Was Discontinued", "core": "Perm", "variable_type": "C", "role": "Record Qualifier", "dataset_level": "Corporate", "embedding_text": "cm domain ; reason the intervention was discontinued ; variable cmrsdisc ; when dosing of a treatment is recorded over multiple successive records, this variable is applicable only for the (chron"}, {"index_id": 477, "dataset": "CM", "variable": "VISITNUM", "label": "Visit Number", "core": "Perm", "variable_type": "N", "role": "Timing", "dataset_level": "Corporate", "embedding_text": "cm domain ; visit number ; variable visitnum ; 1. clinical encounter number. 2. numeric version of visit, used for sorting."}, {"index_id": 478, "dataset": "CM", "variable": "VISIT", "label": "Visit Name", "core": "Perm", "variable_type": "C", "role": "Timing", "dataset_level": "Corporate", "embedding_text": "cm domain ; visit name ; variable visit ; 1. protocol-defined description of clinical encounter. 2. may be used in addition to visitnum and/or visitdy."}, {"index_id": 479, "dataset": "CM", "variable": "VISITDY", "label": "Planned Study Day of Visit", "core": "Perm", "variable_type": "N", "role": "Timing", "dataset_level": "Corporate", "embedding_text": "cm domain ; planned study day of visit ; variable visitdy ; planned study day of visit based upon rfstdtc in demographics. should be an integer."}, {"index_id": 480, "dataset": "CM", "variable": "TAETORD", "label": "Planned Order of Element within Arm", "core": "Perm", "variable_type": "N", "role": "Timing", "dataset_level": "Corporate", "embedding_text": "cm domain ; planned order of element within arm ; variable taetord ; number that gives the planned order of the element within the arm for the element in which the medication administration"}, {"index_id": 481, "dataset": "CM", "variable": "EPOCH", "label": "Epoch", "core": "Perm", "variable_type": "C", "role": "Timing", "dataset_level": "Corporate", "embedding_text": "cm domain ; epoch ; variable epoch ; epoch associated with the start date/time of the medication administration. null for medications that started before stu"}, {"index_id": 482, "dataset": "CM", "variable": "CMDTC", "label": "Date/Time of Collection", "core": "Perm", "variable_type": "C", "role": "", "dataset_level": "Corporate", "embedding_text": "cm domain ; date/time of collection ; variable cmdtc"}, {"index_id": 483, "dataset": "CM", "variable": "CMSTDTC", "label": "Start Date/Time of Medication", "core": "Perm", "variable_type": "C", "role": "Timing", "dataset_level": "Corporate", "embedding_text": "cm domain ; start date/time of medication ; variable cmstdtc ; start date/time of the medication administration represented in iso 8601 character format."}, {"index_id": 484, "dataset": "CM", "variable": "CMENDTC", "label": "End Date/Time of Medication", "core": "Perm", "variable_type": "C", "role": "Timing", "dataset_level": "Corporate", "embedding_text": "cm domain ; end date/time of medication ; variable cmendtc ; end date/time of the medication administration represented in iso 8601 character format."}, {"index_id": 485, "dataset": "CM", "variable": "CMSTDY", "label": "Study Day of Start of Medication", "core": "Perm", "variable_type": "N", "role": "Timing", "dataset_level": "Corporate", "embedding_text": "cm domain ; study day of start of medication ; variable cmstdy ; study day of start of medication relative to the sponsor-defined rfstdtc."}, {"index_id": 486, "dataset": "CM", "variable": "CMENDY", "label": "Study Day of End of Medication", "core": "Perm", "variable_type": "N", "role": "Timing", "dataset_level": "Corporate", "embedding_text": "cm domain ; study day of end of medication ; variable cmendy ; study day of end of medication relative to the sponsor-defined rfstdtc."}, {"index_id": 487, "dataset": "CM", "variable": "CMDUR", "label": "Duration", "core": "Perm", "variable_type": "C", "role": "Timing", "dataset_level": "Corporate", "embedding_text": "cm domain ; duration ; variable cmdur ; collected duration for a treatment episode. used only if collected on the crf and not derived from start and end date/ti"}, {"index_id": 488, "dataset": "CM", "variable": "CMTPT", "label": "Planned Time Point Name", "core": "Perm", "variable_type": "C", "role": "Timing", "dataset_level": "Corporate", "embedding_text": "cm domain ; planned time point name ; variable cmtpt ; text description of time when a measurement or observation should be taken, as defined in the protocol. this may be repr"}, {"index_id": 489, "dataset": "CM", "variable": "CMSTRF", "label": "Start Relative to Reference Period", "core": "Perm", "variable_type": "C", "role": "Timing", "dataset_level": "Corporate", "embedding_text": "cm domain ; start relative to reference period ; variable cmstrf ; describes the start of the medication relative to sponsor-defined reference period. the sponsor-defined reference period"}, {"index_id": 490, "dataset": "CM", "variable": "CMENRF", "label": "End Relative to Reference Period", "core": "Perm", "variable_type": "C", "role": "Timing", "dataset_level": "Corporate", "embedding_text": "cm domain ; end relative to reference period ; variable cmenrf ; describes the end of the medication relative to the sponsor-defined reference period. the sponsor-defined reference peri"}, {"index_id": 491, "dataset": "CM", "variable": "CMEVINTX", "label": "Evaluation Interval Text", "core": "Perm", "variable_type": "C", "role": "Timing", "dataset_level": "Corporate", "embedding_text": "cm domain ; evaluation interval text ; variable cmevintx"}, {"index_id": 492, "dataset": "CM", "variable": "CMSTRTPT", "label": "Start Relative to Reference Time Point", "core": "Perm", "variable_type": "C", "role": "Timing", "dataset_level": "Corporate", "embedding_text": "cm domain ; start relative to reference time point ; variable cmstrtpt ; identifies the start of the medication as being before or after the sponsor-defined reference time point defined by vari"}, {"index_id": 493, "dataset": "CM", "variable": "CMSTTPT", "label": "Start Reference Time Point", "core": "Perm", "variable_type": "C", "role": "Timing", "dataset_level": "Corporate", "embedding_text": "cm domain ; start reference time point ; variable cmsttpt ; description or date/time in iso 8601 character format of the sponsor-defined reference point referred to by cmstrtpt. ex"}, {"index_id": 494, "dataset": "CM", "variable": "CMENRTPT", "label": "End Relative to Reference Time Point", "core": "Perm", "variable_type": "C", "role": "Timing", "dataset_level": "Corporate", "embedding_text": "cm domain ; end relative to reference time point ; variable cmenrtpt ; identifies the end of the medication as being before or after the sponsor-defined reference time point defined by variab"}, {"index_id": 495, "dataset": "CM", "variable": "CMENTPT", "label": "End Reference Time Point", "core": "Perm", "variable_type": "C", "role": "Timing", "dataset_level": "Corporate", "embedding_text": "cm domain ; end reference time point ; variable cmentpt ; description or date/time in iso 8601 character format of the sponsor-defined reference point referred to by cmenrtpt. ex"}, {"index_id": 496, "dataset": "CM", "variable": "BLDUNITS", "label": "Number of Units Transfused", "core": "Supp", "variable_type": "C", "role": "", "dataset_level": "Corporate", "embedding_text": "cm domain ; number of units transfused ; variable bldunits"}, {"index_id": 497, "dataset": "CM", "variable": "CMAENO", "label": "AE Number for Medication Taken", "core": "Supp", "variable_type": "C", "role": "", "dataset_level": "Corporate", "embedding_text": "cm domain ; ae number for medication taken ; variable cmaeno"}, {"index_id": 498, "dataset": "CM", "variable": "CMCD", "label": "Medication Code", "core": "Supp", "variable_type": "C", "role": "", "dataset_level": "Corporate", "embedding_text": "cm domain ; medication code ; variable cmcd"}, {"index_id": 499, "dataset": "CM", "variable": "CMCDOSE", "label": "Prior Therapy Dose", "core": "Supp", "variable_type": "C", "role": "", "dataset_level": "Corporate", "embedding_text": "cm domain ; prior therapy dose ; variable cmcdose"}, {"index_id": 500, "dataset": "CM", "variable": "CMCLYN", "label": "Cycle Number Applicable", "core": "Supp", "variable_type": "C", "role": "", "dataset_level": "Corporate", "embedding_text": "cm domain ; cycle number applicable ; variable cmclyn"}, {"index_id": 501, "dataset": "CM", "variable": "CMCROUTO", "label": "Agent Route of Administration, Other", "core": "Supp", "variable_type": "C", "role": "", "dataset_level": "Corporate", "embedding_text": "cm domain ; agent route of administration, other ; variable cmcrouto"}, {"index_id": 502, "dataset": "CM", "variable": "CMDDOSE", "label": "Number of Cycles Administered", "core": "Supp", "variable_type": "C", "role": "", "dataset_level": "Corporate", "embedding_text": "cm domain ; number of cycles administered ; variable cmddose"}, {"index_id": 503, "dataset": "CM", "variable": "CMDECOD1", "label": "Standardized Medication Name", "core": "Supp", "variable_type": "C", "role": "", "dataset_level": "Corporate", "embedding_text": "cm domain ; standardized medication name ; variable cmdecod1"}, {"index_id": 504, "dataset": "CM", "variable": "CMDECOD2", "label": "Standardized Medication Name", "core": "Supp", "variable_type": "C", "role": "", "dataset_level": "Corporate", "embedding_text": "cm domain ; standardized medication name ; variable cmdecod2"}, {"index_id": 505, "dataset": "CM", "variable": "CMDECOD3", "label": "Standardized Medication Name", "core": "Supp", "variable_type": "C", "role": "", "dataset_level": "Corporate", "embedding_text": "cm domain ; standardized medication name ; variable cmdecod3"}, {"index_id": 506, "dataset": "CM", "variable": "CMDECOD4", "label": "Standardized Medication Name", "core": "Supp", "variable_type": "C", "role": "", "dataset_level": "Corporate", "embedding_text": "cm domain ; standardized medication name ; variable cmdecod4"}, {"index_id": 507, "dataset": "CM", "variable": "CMDECOD5", "label": "Standardized Medication Name", "core": "Supp", "variable_type": "C", "role": "", "dataset_level": "Corporate", "embedding_text": "cm domain ; standardized medication name ; variable cmdecod5"}, {"index_id": 508, "dataset": "CM", "variable": "CMDECOD6", "label": "Standardized Medication Name", "core": "Supp", "variable_type": "C", "role": "", "dataset_level": "Corporate", "embedding_text": "cm domain ; standardized medication name ; variable cmdecod6"}, {"index_id": 509, "dataset": "CM", "variable": "CMDECOD7", "label": "Standardized Medication Name", "core": "Supp", "variable_type": "C", "role": "", "dataset_level": "Corporate", "embedding_text": "cm domain ; standardized medication name ; variable cmdecod7"}, {"index_id": 510, "dataset": "CM", "variable": "CMDECOD8", "label": "Standardized Medication Name", "core": "Supp", "variable_type": "C", "role": "", "dataset_level": "Corporate", "embedding_text": "cm domain ; standardized medication name ; variable cmdecod8"}, {"index_id": 511, "dataset": "CM", "variable": "CMDOSFO", "label": "Dose Form, Other", "core": "Supp", "variable_type": "C", "role": "", "dataset_level": "Corporate", "embedding_text": "cm domain ; dose form, other ; variable cmdosfo"}, {"index_id": 512, "dataset": "CM", "variable": "CMDOSUO", "label": "Dose Unit, Other", "core": "Supp", "variable_type": "C", "role": "", "dataset_level": "Corporate", "embedding_text": "cm domain ; dose unit, other ; variable cmdosuo"}, {"index_id": 513, "dataset": "CM", "variable": "CMDSFRQO", "label": "Medication Dosing Frequency, Other", "core": "Supp", "variable_type": "C", "role": "", "dataset_level": "Corporate", "embedding_text": "cm domain ; medication dosing frequency, other ; variable cmdsfrqo"}, {"index_id": 514, "dataset": "CM", "variable": "CMDTXT", "label": "Medication Dictionary Text", "core": "Supp", "variable_type": "C", "role": "", "dataset_level": "Corporate", "embedding_text": "cm domain ; medication dictionary text ; variable cmdtxt"}, {"index_id": 515, "dataset": "CM", "variable": "CMDTXT1", "label": "Medication Dictionary Text", "core": "Supp", "variable_type": "C", "role": "", "dataset_level": "Corporate", "embedding_text": "cm domain ; medication dictionary text ; variable cmdtxt1"}, {"index_id": 516, "dataset": "CM", "variable": "CMDTXT2", "label": "Medication Dictionary Text", "core": "Supp", "variable_type": "C", "role": "", "dataset_level": "Corporate", "embedding_text": "cm domain ; medication dictionary text ; variable cmdtxt2"}, {"index_id": 517, "dataset": "CM", "variable": "CMDTXT3", "label": "Medication Dictionary Text", "core": "Supp", "variable_type": "C", "role": "", "dataset_level": "Corporate", "embedding_text": "cm domain ; medication dictionary text ; variable cmdtxt3"}, {"index_id": 518, "dataset": "CM", "variable": "CMDTXT4", "label": "Medication Dictionary Text", "core": "Supp", "variable_type": "C", "role": "", "dataset_level": "Corporate", "embedding_text": "cm domain ; medication dictionary text ; variable cmdtxt4"}, {"index_id": 519, "dataset": "CM", "variable": "CMDTXT5", "label": "Medication Dictionary Text", "core": "Supp", "variable_type": "C", "role": "", "dataset_level": "Corporate", "embedding_text": "cm domain ; medication dictionary text ; variable cmdtxt5"}, {"index_id": 520, "dataset": "CM", "variable": "CMDTXT6", "label": "Medication Dictionary Text", "core": "Supp", "variable_type": "C", "role": "", "dataset_level": "Corporate", "embedding_text": "cm domain ; medication dictionary text ; variable cmdtxt6"}, {"index_id": 521, "dataset": "CM", "variable": "CMDTXT7", "label": "Medication Dictionary Text", "core": "Supp", "variable_type": "C", "role": "", "dataset_level": "Corporate", "embedding_text": "cm domain ; medication dictionary text ; variable cmdtxt7"}, {"index_id": 522, "dataset": "CM", "variable": "CMDTXT8", "label": "Medication Dictionary Text", "core": "Supp", "variable_type": "C", "role": "", "dataset_level": "Corporate", "embedding_text": "cm domain ; medication dictionary text ; variable cmdtxt8"}, {"index_id": 523, "dataset": "CM", "variable": "CMDVCE", "label": "Device", "core": "Supp", "variable_type": "C", "role": "", "dataset_level": "Corporate", "embedding_text": "cm domain ; device ; variable cmdvce"}, {"index_id": 524, "dataset": "CM", "variable": "CMGROUP", "label": "Preferred Grouping Term", "core": "Supp", "variable_type": "C", "role": "", "dataset_level": "Corporate", "embedding_text": "cm domain ; preferred grouping term ; variable cmgroup"}, {"index_id": 525, "dataset": "CM", "variable": "CMGROUP2", "label": "Preferred Grouping Term", "core": "Supp", "variable_type": "C", "role": "", "dataset_level": "Corporate", "embedding_text": "cm domain ; preferred grouping term ; variable cmgroup2"}, {"index_id": 526, "dataset": "CM", "variable": "CMGROUP3", "label": "Preferred Grouping Term", "core": "Supp", "variable_type": "C", "role": "", "dataset_level": "Corporate", "embedding_text": "cm domain ; preferred grouping term ; variable cmgroup3"}, {"index_id": 527, "dataset": "CM", "variable": "CMGROUP4", "label": "Preferred Grouping Term", "core": "Supp", "variable_type": "C", "role": "", "dataset_level": "Corporate", "embedding_text": "cm domain ; preferred grouping term ; variable cmgroup4"}, {"index_id": 528, "dataset": "CM", "variable": "CMGROUP5", "label": "Preferred Grouping Term", "core": "Supp", "variable_type": "C", "role": "", "dataset_level": "Corporate", "embedding_text": "cm domain ; preferred grouping term ; variable cmgroup5"}, {"index_id": 529, "dataset": "CM", "variable": "CMGROUP6", "label": "Preferred Grouping Term", "core": "Supp", "variable_type": "C", "role": "", "dataset_level": "Corporate", "embedding_text": "cm domain ; preferred grouping term ; variable cmgroup6"}, {"index_id": 530, "dataset": "CM", "variable": "CMGROUP7", "label": "Preferred Grouping Term", "core": "Supp", "variable_type": "C", "role": "", "dataset_level": "Corporate", "embedding_text": "cm domain ; preferred grouping term ; variable cmgroup7"}, {"index_id": 531, "dataset": "CM", "variable": "CMGROUP8", "label": "Preferred Grouping Term", "core": "Supp", "variable_type": "C", "role": "", "dataset_level": "Corporate", "embedding_text": "cm domain ; preferred grouping term ; variable cmgroup8"}, {"index_id": 532, "dataset": "CM", "variable": "CMINGRD1", "label": "Active Ingredient 1", "core": "Supp", "variable_type": "C", "role": "", "dataset_level": "Corporate", "embedding_text": "cm domain ; active ingredient 1 ; variable cmingrd1"}, {"index_id": 533, "dataset": "CM", "variable": "CMINGRD2", "label": "Active Ingredient 2", "core": "Supp", "variable_type": "C", "role": "", "dataset_level": "Corporate", "embedding_text": "cm domain ; active ingredient 2 ; variable cmingrd2"}, {"index_id": 534, "dataset": "CM", "variable": "CMINHTYP", "label": "Inhalator Type", "core": "Supp", "variable_type": "C", "role": "", "dataset_level": "Corporate", "embedding_text": "cm domain ; inhalator type ; variable cminhtyp"}, {"index_id": 535, "dataset": "CM", "variable": "CMIPRLTY", "label": "Immediate Line Therapy Prior Study Treat", "core": "Supp", "variable_type": "C", "role": "", "dataset_level": "Corporate", "embedding_text": "cm domain ; immediate line therapy prior study treat ; variable cmiprlty"}, {"index_id": 536, "dataset": "CM", "variable": "CMLINCON", "label": "Description of Consolidation", "core": "Supp", "variable_type": "C", "role": "", "dataset_level": "Corporate", "embedding_text": "cm domain ; description of consolidation ; variable cmlincon"}, {"index_id": 537, "dataset": "CM", "variable": "CMLINDES", "label": "Description of the Line", "core": "Supp", "variable_type": "C", "role": "", "dataset_level": "Corporate", "embedding_text": "cm domain ; description of the line ; variable cmlindes"}, {"index_id": 538, "dataset": "CM", "variable": "CMLININD", "label": "Description of Induction", "core": "Supp", "variable_type": "C", "role": "", "dataset_level": "Corporate", "embedding_text": "cm domain ; description of induction ; variable cmlinind"}, {"index_id": 539, "dataset": "CM", "variable": "CMLINMAN", "label": "Description of Maintenance", "core": "Supp", "variable_type": "C", "role": "", "dataset_level": "Corporate", "embedding_text": "cm domain ; description of maintenance ; variable cmlinman"}, {"index_id": 540, "dataset": "CM", "variable": "CMMHNO", "label": "MH ID", "core": "Supp", "variable_type": "C", "role": "", "dataset_level": "Corporate", "embedding_text": "cm domain ; mh id ; variable cmmhno"}, {"index_id": 541, "dataset": "CM", "variable": "CMMULT", "label": "Multiple Drug", "core": "Supp", "variable_type": "C", "role": "", "dataset_level": "Corporate", "embedding_text": "cm domain ; multiple drug ; variable cmmult"}, {"index_id": 542, "dataset": "CM", "variable": "CMPREF2", "label": "Preferred Name 2 (Seq2=1)", "core": "Supp", "variable_type": "C", "role": "", "dataset_level": "Corporate", "embedding_text": "cm domain ; preferred name 2 (seq2=1) ; variable cmpref2"}, {"index_id": 543, "dataset": "CM", "variable": "CMPREF3", "label": "Preferred Name 3 (Seq2=1)", "core": "Supp", "variable_type": "C", "role": "", "dataset_level": "Corporate", "embedding_text": "cm domain ; preferred name 3 (seq2=1) ; variable cmpref3"}, {"index_id": 544, "dataset": "CM", "variable": "CMPREF4", "label": "Preferred Name 4 (Seq2=1)", "core": "Supp", "variable_type": "C", "role": "", "dataset_level": "Corporate", "embedding_text": "cm domain ; preferred name 4 (seq2=1) ; variable cmpref4"}, {"index_id": 545, "dataset": "CM", "variable": "CMPREF5", "label": "Preferred Name 5 (Seq2=1)", "core": "Supp", "variable_type": "C", "role": "", "dataset_level": "Corporate", "embedding_text": "cm domain ; preferred name 5 (seq2=1) ; variable cmpref5"}, {"index_id": 546, "dataset": "CM", "variable": "CMPREF6", "label": "Preferred Name 6 (Seq2=1)", "core": "Supp", "variable_type": "C", "role": "", "dataset_level": "Corporate", "embedding_text": "cm domain ; preferred name 6 (seq2=1) ; variable cmpref6"}, {"index_id": 547, "dataset": "CM", "variable": "CMPREF7", "label": "Preferred Name 7 (Seq2=1)", "core": "Supp", "variable_type": "C", "role": "", "dataset_level": "Corporate", "embedding_text": "cm domain ; preferred name 7 (seq2=1) ; variable cmpref7"}, {"index_id": 548, "dataset": "CM", "variable": "CMPREF8", "label": "Preferred Name 8 (Seq2=1)", "core": "Supp", "variable_type": "C", "role": "", "dataset_level": "Corporate", "embedding_text": "cm domain ; preferred name 8 (seq2=1) ; variable cmpref8"}, {"index_id": 549, "dataset": "CM", "variable": "CMQTXT", "label": "Medication Question Full Text", "core": "Supp", "variable_type": "C", "role": "", "dataset_level": "Corporate", "embedding_text": "cm domain ; medication question full text ; variable cmqtxt"}, {"index_id": 550, "dataset": "CM", "variable": "CMREAS", "label": "Therapy Reason", "core": "Supp", "variable_type": "C", "role": "", "dataset_level": "Corporate", "embedding_text": "cm domain ; therapy reason ; variable cmreas"}, {"index_id": 551, "dataset": "CM", "variable": "CMREEOEN", "label": "Therapy Reason, EoE Details", "core": "Supp", "variable_type": "C", "role": "", "dataset_level": "Corporate", "embedding_text": "cm domain ; therapy reason, eoe details ; variable cmreeoen"}, {"index_id": 552, "dataset": "CM", "variable": "CMREEOEY", "label": "Therapy Reason, EoE Details/Other", "core": "Supp", "variable_type": "C", "role": "", "dataset_level": "Corporate", "embedding_text": "cm domain ; therapy reason, eoe details/other ; variable cmreeoey"}, {"index_id": 553, "dataset": "CM", "variable": "CMROUTEO", "label": "CM Route Other", "core": "Supp", "variable_type": "C", "role": "", "dataset_level": "Corporate", "embedding_text": "cm domain ; cm route other ; variable cmrouteo"}, {"index_id": 554, "dataset": "CM", "variable": "CMRSLOC", "label": "Radiotherapy Site or Region", "core": "Supp", "variable_type": "C", "role": "", "dataset_level": "Corporate", "embedding_text": "cm domain ; radiotherapy site or region ; variable cmrsloc"}, {"index_id": 555, "dataset": "CM", "variable": "CMSCATO", "label": "Subcategory for Medication Other", "core": "Supp", "variable_type": "C", "role": "", "dataset_level": "Corporate", "embedding_text": "cm domain ; subcategory for medication other ; variable cmscato"}, {"index_id": 556, "dataset": "CM", "variable": "CMTREEOE", "label": "Eosinophilic Esophagitis/Other", "core": "Supp", "variable_type": "C", "role": "", "dataset_level": "Corporate", "embedding_text": "cm domain ; eosinophilic esophagitis/other ; variable cmtreeoe"}, {"index_id": 557, "dataset": "CM", "variable": "CMYN", "label": "Any Cancer Therapy", "core": "Supp", "variable_type": "C", "role": "", "dataset_level": "Corporate", "embedding_text": "cm domain ; any cancer therapy ; variable cmyn"}, {"index_id": 558, "dataset": "CM", "variable": "CMYNSP", "label": "Cancer Therapy Not Applicable, Specify", "core": "Supp", "variable_type": "C", "role": "", "dataset_level": "Corporate", "embedding_text": "cm domain ; cancer therapy not applicable, specify ; variable cmynsp"}, {"index_id": 559, "dataset": "CM", "variable": "CXBRACS", "label": "Brachytherapy, Specify", "core": "Supp", "variable_type": "C", "role": "", "dataset_level": "Corporate", "embedding_text": "cm domain ; brachytherapy, specify ; variable cxbracs"}, {"index_id": 560, "dataset": "CM", "variable": "CXFPLATR", "label": "Further Platin Planned on Later Relapse", "core": "Supp", "variable_type": "C", "role": "", "dataset_level": "Corporate", "embedding_text": "cm domain ; further platin planned on later relapse ; variable cxfplatr"}, {"index_id": 561, "dataset": "CM", "variable": "CXHSCT", "label": "Concomitant HSCT", "core": "Supp", "variable_type": "C", "role": "", "dataset_level": "Corporate", "embedding_text": "cm domain ; concomitant hsct ; variable cxhsct"}, {"index_id": 562, "dataset": "CM", "variable": "CXINTRSN", "label": "Reason for Interruptions", "core": "Supp", "variable_type": "C", "role": "", "dataset_level": "Corporate", "embedding_text": "cm domain ; reason for interruptions ; variable cxintrsn"}, {"index_id": 563, "dataset": "CM", "variable": "CXINTRSO", "label": "Reason for Interruptions, Other", "core": "Supp", "variable_type": "C", "role": "", "dataset_level": "Corporate", "embedding_text": "cm domain ; reason for interruptions, other ; variable cxintrso"}, {"index_id": 564, "dataset": "CM", "variable": "CXLATEAL", "label": "Radiotherapy Site/Region Laterality", "core": "Supp", "variable_type": "C", "role": "", "dataset_level": "Corporate", "embedding_text": "cm domain ; radiotherapy site/region laterality ; variable cxlateal"}, {"index_id": 565, "dataset": "CM", "variable": "CXPLATSN", "label": "Classification of Platinum Sensitivity", "core": "Supp", "variable_type": "C", "role": "", "dataset_level": "Corporate", "embedding_text": "cm domain ; classification of platinum sensitivity ; variable cxplatsn"}, {"index_id": 566, "dataset": "CM", "variable": "CXPROG", "label": "Disease Progression on Therapy", "core": "Supp", "variable_type": "C", "role": "", "dataset_level": "Corporate", "embedding_text": "cm domain ; disease progression on therapy ; variable cxprog"}, {"index_id": 567, "dataset": "CM", "variable": "CXRAD", "label": "Concomitant Radiotherapy", "core": "Supp", "variable_type": "C", "role": "", "dataset_level": "Corporate", "embedding_text": "cm domain ; concomitant radiotherapy ; variable cxrad"}, {"index_id": 568, "dataset": "CM", "variable": "CXRATEC", "label": "Radiotherapy Technique", "core": "Supp", "variable_type": "C", "role": "", "dataset_level": "Corporate", "embedding_text": "cm domain ; radiotherapy technique ; variable cxratec"}, {"index_id": 569, "dataset": "CM", "variable": "CXRATECO", "label": "Radiotherapy Technique, Other", "core": "Supp", "variable_type": "C", "role": "", "dataset_level": "Corporate", "embedding_text": "cm domain ; radiotherapy technique, other ; variable cxrateco"}, {"index_id": 570, "dataset": "CM", "variable": "CXRATYP", "label": "Type of Radiotherapy", "core": "Supp", "variable_type": "C", "role": "", "dataset_level": "Corporate", "embedding_text": "cm domain ; type of radiotherapy ; variable cxratyp"}, {"index_id": 571, "dataset": "CM", "variable": "CXRDREGO", "label": "Radiotherapy Site/Region Location Other", "core": "Supp", "variable_type": "C", "role": "", "dataset_level": "Corporate", "embedding_text": "cm domain ; radiotherapy site/region location other ; variable cxrdrego"}, {"index_id": 572, "dataset": "CM", "variable": "CXREGION", "label": "Radiotherapy Site/Region Grouping", "core": "Supp", "variable_type": "C", "role": "", "dataset_level": "Corporate", "embedding_text": "cm domain ; radiotherapy site/region grouping ; variable cxregion"}, {"index_id": 573, "dataset": "CM", "variable": "CXRNST", "label": "Reason for No Subsequent Therapy", "core": "Supp", "variable_type": "C", "role": "", "dataset_level": "Corporate", "embedding_text": "cm domain ; reason for no subsequent therapy ; variable cxrnst"}, {"index_id": 574, "dataset": "CM", "variable": "CXROTH", "label": "Reason No Subseq Therapy, Other Specify", "core": "Supp", "variable_type": "C", "role": "", "dataset_level": "Corporate", "embedding_text": "cm domain ; reason no subseq therapy, other specify ; variable cxroth"}, {"index_id": 575, "dataset": "CM", "variable": "CXTRTST", "label": "Treatment Status", "core": "Supp", "variable_type": "C", "role": "", "dataset_level": "Corporate", "embedding_text": "cm domain ; treatment status ; variable cxtrtst"}, {"index_id": 576, "dataset": "CM", "variable": "CYCNUM", "label": "Cycle Number", "core": "Supp", "variable_type": "C", "role": "", "dataset_level": "Corporate", "embedding_text": "cm domain ; cycle number ; variable cycnum"}, {"index_id": 577, "dataset": "CM", "variable": "DIDPLIN", "label": "Disease Progression on This Line", "core": "Supp", "variable_type": "C", "role": "", "dataset_level": "Corporate", "embedding_text": "cm domain ; disease progression on this line ; variable didplin"}, {"index_id": 578, "dataset": "CM", "variable": "DIGRT", "label": "Daily Image Guidance (IGRT)", "core": "Supp", "variable_type": "C", "role": "", "dataset_level": "Corporate", "embedding_text": "cm domain ; daily image guidance (igrt) ; variable digrt"}, {"index_id": 579, "dataset": "CM", "variable": "FAILREAS", "label": "Reason for Therapy Failure", "core": "Supp", "variable_type": "C", "role": "", "dataset_level": "Corporate", "embedding_text": "cm domain ; reason for therapy failure ; variable failreas"}, {"index_id": 580, "dataset": "CM", "variable": "MODULE", "label": "Source Module Short Name", "core": "Supp", "variable_type": "C", "role": "", "dataset_level": "Corporate", "embedding_text": "cm domain ; source module short name ; variable module"}, {"index_id": 581, "dataset": "CM", "variable": "MOMAMTH", "label": "Motion Management Method", "core": "Supp", "variable_type": "C", "role": "", "dataset_level": "Corporate", "embedding_text": "cm domain ; motion management method ; variable momamth"}, {"index_id": 582, "dataset": "CM", "variable": "NDPCYC", "label": "Number of Days per Cycle", "core": "Supp", "variable_type": "C", "role": "", "dataset_level": "Corporate", "embedding_text": "cm domain ; number of days per cycle ; variable ndpcyc"}, {"index_id": 583, "dataset": "CM", "variable": "NOFRACRY", "label": "Number of Fraction Doses", "core": "Supp", "variable_type": "C", "role": "", "dataset_level": "Corporate", "embedding_text": "cm domain ; number of fraction doses ; variable nofracry"}, {"index_id": 584, "dataset": "CM", "variable": "ONCRDTC", "label": "Date of Best Overall Response", "core": "Supp", "variable_type": "C", "role": "", "dataset_level": "Corporate", "embedding_text": "cm domain ; date of best overall response ; variable oncrdtc"}, {"index_id": 585, "dataset": "CM", "variable": "ONCRSR", "label": "Best Overall Response", "core": "Supp", "variable_type": "C", "role": "", "dataset_level": "Corporate", "embedding_text": "cm domain ; best overall response ; variable oncrsr"}, {"index_id": 586, "dataset": "CM", "variable": "PRSYSTEM", "label": "No of Prior Systemic Therapy Regimens", "core": "Supp", "variable_type": "C", "role": "", "dataset_level": "Corporate", "embedding_text": "cm domain ; no of prior systemic therapy regimens ; variable prsystem"}, {"index_id": 587, "dataset": "CM", "variable": "RADALDO", "label": "Radio After Last Dose Without Oth Treatm", "core": "Supp", "variable_type": "C", "role": "", "dataset_level": "Corporate", "embedding_text": "cm domain ; radio after last dose without oth treatm ; variable radaldo"}, {"index_id": 588, "dataset": "CM", "variable": "RADSTTR", "label": "Radioth Given as Standalone Treatment", "core": "Supp", "variable_type": "C", "role": "", "dataset_level": "Corporate", "embedding_text": "cm domain ; radioth given as standalone treatment ; variable radsttr"}, {"index_id": 589, "dataset": "CM", "variable": "REGNO", "label": "Regimen Number", "core": "Supp", "variable_type": "C", "role": "", "dataset_level": "Corporate", "embedding_text": "cm domain ; regimen number ; variable regno"}, {"index_id": 590, "dataset": "CM", "variable": "REGSIM", "label": "Sites/Regions Treated Simultaneously Num", "core": "Supp", "variable_type": "C", "role": "", "dataset_level": "Corporate", "embedding_text": "cm domain ; sites/regions treated simultaneously num ; variable regsim"}, {"index_id": 591, "dataset": "CM", "variable": "RSTRLOC", "label": "Radiotherapy Site/Region Treated Locatio", "core": "Supp", "variable_type": "C", "role": "", "dataset_level": "Corporate", "embedding_text": "cm domain ; radiotherapy site/region treated locatio ; variable rstrloc"}, {"index_id": 592, "dataset": "CM", "variable": "THLINE", "label": "Line of Therapy", "core": "Supp", "variable_type": "C", "role": "", "dataset_level": "Corporate", "embedding_text": "cm domain ; line of therapy ; variable thline"}, {"index_id": 593, "dataset": "CM", "variable": "TRREAEN", "label": "Reason Treatment Ended", "core": "Supp", "variable_type": "C", "role": "", "dataset_level": "Corporate", "embedding_text": "cm domain ; reason treatment ended ; variable trreaen"}, {"index_id": 594, "dataset": "CM", "variable": "TRSREAS", "label": "Pre-study Transfusion Reason, Specify", "core": "Supp", "variable_type": "C", "role": "", "dataset_level": "Corporate", "embedding_text": "cm domain ; pre-study transfusion reason, specify ; variable trsreas"}, {"index_id": 595, "dataset": "CM", "variable": "TRTINTNT", "label": "Treatment Intent", "core": "Supp", "variable_type": "C", "role": "", "dataset_level": "Corporate", "embedding_text": "cm domain ; treatment intent ; variable trtintnt"}, {"index_id": 596, "dataset": "CM", "variable": "TRTINTO", "label": "Treatment Intent, Other", "core": "Supp", "variable_type": "C", "role": "", "dataset_level": "Corporate", "embedding_text": "cm domain ; treatment intent, other ; variable trtinto"}, {"index_id": 597, "dataset": "CM", "variable": "TRTSET", "label": "Treatment Setting", "core": "Supp", "variable_type": "C", "role": "", "dataset_level": "Corporate", "embedding_text": "cm domain ; treatment setting ; variable trtset"}, {"index_id": 598, "dataset": "CM", "variable": "UNIT", "label": "Unit", "core": "Supp", "variable_type": "C", "role": "", "dataset_level": "Corporate", "embedding_text": "cm domain ; unit ; variable unit"}, {"index_id": 599, "dataset": "CM", "variable": "VISITDTC", "label": "Date of Visit", "core": "Supp", "variable_type": "C", "role": "", "dataset_level": "Corporate", "embedding_text": "cm domain ; date of visit ; variable visitdtc"}, {"index_id": 600, "dataset": "CM", "variable": "WHODRGV", "label": "WHO Drug Dictionary Version", "core": "Supp", "variable_type": "C", "role": "", "dataset_level": "Corporate", "embedding_text": "cm domain ; who drug dictionary version ; variable whodrgv"}, {"index_id": 601, "dataset": "CM", "variable": "CXRADOT", "label": "Total Radiation Dose", "core": "Supp", "variable_type": "C", "role": "", "dataset_level": "Corporate", "embedding_text": "cm domain ; total radiation dose ; variable cxradot"}, {"index_id": 602, "dataset": "CM", "variable": "MOXDEL", "label": "Method Oxygen Provided", "core": "Supp", "variable_type": "C", "role": "", "dataset_level": "Corporate", "embedding_text": "cm domain ; method oxygen provided ; variable moxdel"}, {"index_id": 603, "dataset": "CM", "variable": "CMPSTRG", "label": "Pharmaceutical Strength", "core": "Supp", "variable_type": "C", "role": "", "dataset_level": "Corporate", "embedding_text": "cm domain ; pharmaceutical strength ; variable cmpstrg"}, {"index_id": 604, "dataset": "CM", "variable": "CMPSTRGU", "label": "Pharmaceutical Strength Units", "core": "Supp", "variable_type": "C", "role": "", "dataset_level": "Corporate", "embedding_text": "cm domain ; pharmaceutical strength units ; variable cmpstrgu"}, {"index_id": 605, "dataset": "CM", "variable": "IODTEX", "label": "Oxygen Increased due to Exercise", "core": "Supp", "variable_type": "C", "role": "", "dataset_level": "Corporate", "embedding_text": "cm domain ; oxygen increased due to exercise ; variable iodtex"}, {"index_id": 606, "dataset": "CO", "variable": "STUDYID", "label": "Study Identifier", "core": "Req", "variable_type": "C", "role": "Identifier", "dataset_level": "Corporate", "embedding_text": "co domain ; study identifier ; variable studyid ; unique identifier for a study."}, {"index_id": 607, "dataset": "CO", "variable": "DOMAIN", "label": "Domain Abbreviation", "core": "Req", "variable_type": "C", "role": "Identifier", "dataset_level": "Corporate", "embedding_text": "co domain ; domain abbreviation ; variable domain ; two-character abbreviation for the domain."}, {"index_id": 608, "dataset": "CO", "variable": "RDOMAIN", "label": "Related Domain Abbreviation", "core": "Perm", "variable_type": "C", "role": "Record Qualifier", "dataset_level": "Corporate", "embedding_text": "co domain ; related domain abbreviation ; variable rdomain ; two-character abbreviation for the domain of the parent record(s). null for comments collected on a general comments or"}, {"index_id": 609, "dataset": "CO", "variable": "USUBJID", "label": "Unique Subject Identifier", "core": "Req", "variable_type": "C", "role": "Identifier", "dataset_level": "Corporate", "embedding_text": "co domain ; unique subject identifier ; variable usubjid ; identifier used to uniquely identify a subject across all studies for all applications or submissions involving the prod"}, {"index_id": 610, "dataset": "CO", "variable": "COSEQ", "label": "Sequence Number", "core": "Req", "variable_type": "N", "role": "Identifier", "dataset_level": "Corporate", "embedding_text": "co domain ; sequence number ; variable coseq ; sequence number given to ensure uniqueness of subject records within a domain. may be any valid number."}, {"index_id": 611, "dataset": "CO", "variable": "COLNKID", "label": "Link ID", "core": "Perm", "variable_type": "C", "role": "Identifier", "dataset_level": "Corporate", "embedding_text": "co domain ; link id ; variable colnkid ; identifier used to link related records across domains. this may be a one-to-one or a one-to-many relationship. for exam"}, {"index_id": 612, "dataset": "CO", "variable": "COLNKGRP", "label": "Link Group ID", "core": "Perm", "variable_type": "C", "role": "Identifier", "dataset_level": "Corporate", "embedding_text": "co domain ; link group id ; variable colnkgrp ; identifier used to link related records across domains. this will usually be a many-to-one relationship. for example, mu"}, {"index_id": 613, "dataset": "CO", "variable": "IDVAR", "label": "Identifying Variable", "core": "Perm", "variable_type": "C", "role": "Record Qualifier", "dataset_level": "Corporate", "embedding_text": "co domain ; identifying variable ; variable idvar ; identifying variable in the parent dataset that identifies the record(s) to which the comment applies. examples aeseq or"}, {"index_id": 614, "dataset": "CO", "variable": "IDVARVAL", "label": "Identifying Variable Value", "core": "Perm", "variable_type": "C", "role": "Record Qualifier", "dataset_level": "Corporate", "embedding_text": "co domain ; identifying variable value ; variable idvarval ; value of identifying variable of the parent record(s). used only when individual comments are related to domain records."}, {"index_id": 615, "dataset": "CO", "variable": "COREF", "label": "Comment Reference", "core": "Perm", "variable_type": "C", "role": "Record Qualifier", "dataset_level": "Corporate", "embedding_text": "co domain ; comment reference ; variable coref ; sponsor-defined reference associated with the comment. may be the crf page number (e.g., 650), or a module name (e.g., d"}, {"index_id": 616, "dataset": "CO", "variable": "COVAL", "label": "Comment", "core": "Req", "variable_type": "C", "role": "Topic", "dataset_level": "Corporate", "embedding_text": "co domain ; comment ; variable coval ; the text of the comment. text over 200 characters can be added to additional columns coval1-covaln. see assumption 3."}, {"index_id": 617, "dataset": "CO", "variable": "COVAL1", "label": "Comment", "core": "Perm", "variable_type": "C", "role": "Topic", "dataset_level": "Corporate", "embedding_text": "co domain ; comment ; variable coval1 ; the text of the comment. text over 200 characters can be added to additional columns coval1-covaln. see assumption 5.2.1"}, {"index_id": 618, "dataset": "CO", "variable": "COVAL2", "label": "Comment", "core": "Perm", "variable_type": "C", "role": "Topic", "dataset_level": "Corporate", "embedding_text": "co domain ; comment ; variable coval2 ; the text of the comment. text over 200 characters can be added to additional columns coval1-covaln. see assumption 5.2.1"}, {"index_id": 619, "dataset": "CO", "variable": "COVAL3", "label": "Comment", "core": "Perm", "variable_type": "C", "role": "Topic", "dataset_level": "Corporate", "embedding_text": "co domain ; comment ; variable coval3 ; the text of the comment. text over 200 characters can be added to additional columns coval1-covaln. see assumption 5.2.1"}, {"index_id": 620, "dataset": "CO", "variable": "COVAL4", "label": "Comment", "core": "Perm", "variable_type": "C", "role": "Topic", "dataset_level": "Corporate", "embedding_text": "co domain ; comment ; variable coval4 ; the text of the comment. text over 200 characters can be added to additional columns coval1-covaln. see assumption 5.2.1"}, {"index_id": 621, "dataset": "CO", "variable": "COVAL5", "label": "Comment", "core": "Perm", "variable_type": "C", "role": "Topic", "dataset_level": "Corporate", "embedding_text": "co domain ; comment ; variable coval5 ; the text of the comment. text over 200 characters can be added to additional columns coval1-covaln. see assumption 5.2.1"}, {"index_id": 622, "dataset": "CO", "variable": "COVAL6", "label": "Comment", "core": "Perm", "variable_type": "C", "role": "Topic", "dataset_level": "Corporate", "embedding_text": "co domain ; comment ; variable coval6 ; the text of the comment. text over 200 characters can be added to additional columns coval1-covaln. see assumption 5.2.1"}, {"index_id": 623, "dataset": "CO", "variable": "COVAL7", "label": "Comment", "core": "Perm", "variable_type": "C", "role": "Topic", "dataset_level": "Corporate", "embedding_text": "co domain ; comment ; variable coval7 ; the text of the comment. text over 200 characters can be added to additional columns coval1-covaln. see assumption 5.2.1"}, {"index_id": 624, "dataset": "CO", "variable": "COVAL8", "label": "Comment", "core": "Perm", "variable_type": "C", "role": "Topic", "dataset_level": "Corporate", "embedding_text": "co domain ; comment ; variable coval8 ; the text of the comment. text over 200 characters can be added to additional columns coval1-covaln. see assumption 5.2.1"}, {"index_id": 625, "dataset": "CO", "variable": "COVAL9", "label": "Comment", "core": "Perm", "variable_type": "C", "role": "Topic", "dataset_level": "Corporate", "embedding_text": "co domain ; comment ; variable coval9 ; the text of the comment. text over 200 characters can be added to additional columns coval1-covaln. see assumption 5.2.1"}, {"index_id": 626, "dataset": "CO", "variable": "COEVAL", "label": "Evaluator", "core": "Perm", "variable_type": "C", "role": "Record Qualifier", "dataset_level": "Corporate", "embedding_text": "co domain ; evaluator ; variable coeval ; role of the person who provided the evaluation. used only for results that are subjective (e.g., assigned by a person or"}, {"index_id": 627, "dataset": "CO", "variable": "COEVALID", "label": "Evaluator Identifier", "core": "Perm", "variable_type": "C", "role": "Variable Qualifier", "dataset_level": "Corporate", "embedding_text": "co domain ; evaluator identifier ; variable coevalid ; used to distinguish multiple evaluators with the same role recorded in --eval. examples: \"radiologist\", \"radiologist 1\","}, {"index_id": 628, "dataset": "CO", "variable": "VISITNUM", "label": "Visit Number", "core": "Perm", "variable_type": "N", "role": "Timing", "dataset_level": "Corporate", "embedding_text": "co domain ; visit number ; variable visitnum ; 1. clinical encounter number. 2. numeric version of visit, used for sorting."}, {"index_id": 629, "dataset": "CO", "variable": "VISIT", "label": "Visit Name", "core": "Perm", "variable_type": "C", "role": "Timing", "dataset_level": "Corporate", "embedding_text": "co domain ; visit name ; variable visit ; 1. protocol-defined description of clinical encounter. 2. may be used in addition to visitnum and/or visitdy."}, {"index_id": 630, "dataset": "CO", "variable": "VISITDY", "label": "Planned Study Day of Visit", "core": "Perm", "variable_type": "N", "role": "Timing", "dataset_level": "Corporate", "embedding_text": "co domain ; planned study day of visit ; variable visitdy ; planned study day of visit based upon rfstdtc in demographics. should be an integer."}, {"index_id": 631, "dataset": "CO", "variable": "CODTC", "label": "Date/Time of Comment", "core": "Perm", "variable_type": "C", "role": "Timing", "dataset_level": "Corporate", "embedding_text": "co domain ; date/time of comment ; variable codtc ; date/time of comment on dedicated comment form. should be null if this is a child record of another domain or if comment"}, {"index_id": 632, "dataset": "CO", "variable": "CODY", "label": "Study Day of Comment", "core": "Perm", "variable_type": "N", "role": "Timing", "dataset_level": "Corporate", "embedding_text": "co domain ; study day of comment ; variable cody ; study day of the comment, in integer days. the algorithm for calculations must be relative to the sponsor-defined rfstdt"}, {"index_id": 633, "dataset": "CO", "variable": "MODULE", "label": "Source Module Short Name", "core": "Supp", "variable_type": "C", "role": "", "dataset_level": "Corporate", "embedding_text": "co domain ; source module short name ; variable module"}, {"index_id": 634, "dataset": "CP", "variable": "STUDYID", "label": "Study Identifier", "core": "Req", "variable_type": "C", "role": "Identifier", "dataset_level": "Oncology", "embedding_text": "cp domain ; study identifier ; variable studyid ; unique identifier for a study."}, {"index_id": 635, "dataset": "CP", "variable": "DOMAIN", "label": "Domain Abbreviation", "core": "Req", "variable_type": "C", "role": "Identifier", "dataset_level": "Oncology", "embedding_text": "cp domain ; domain abbreviation ; variable domain ; two-character abbreviation for the domain."}, {"index_id": 636, "dataset": "CP", "variable": "USUBJID", "label": "Unique Subject Identifier", "core": "Req", "variable_type": "C", "role": "Identifier", "dataset_level": "Oncology", "embedding_text": "cp domain ; unique subject identifier ; variable usubjid ; identifier used to uniquely identify a subject across all studies for all applications or submissions involving the prod"}, {"index_id": 637, "dataset": "CP", "variable": "CPSEQ", "label": "Sequence Number", "core": "Req", "variable_type": "N", "role": "Identifier", "dataset_level": "Oncology", "embedding_text": "cp domain ; sequence number ; variable cpseq ; sequence number to ensure uniqueness of subject records within a domain. may be any valid number."}, {"index_id": 638, "dataset": "CP", "variable": "CPGRPID", "label": "Group ID", "core": "Perm", "variable_type": "C", "role": "Identifier", "dataset_level": "Oncology", "embedding_text": "cp domain ; group id ; variable cpgrpid ; used to tie together a block of related records in a single domain for a subject."}, {"index_id": 639, "dataset": "CP", "variable": "CPREFID", "label": "Reference ID", "core": "Perm", "variable_type": "C", "role": "Identifier", "dataset_level": "Oncology", "embedding_text": "cp domain ; reference id ; variable cprefid ; internal or external specimen identifier."}, {"index_id": 640, "dataset": "CP", "variable": "CPTESTCD", "label": "Test or Examination Short Name", "core": "Req", "variable_type": "C", "role": "Topic", "dataset_level": "Oncology", "embedding_text": "cp domain ; test or examination short name ; variable cptestcd ; short name of the measurement, test, or examination described in cptest. it can be used as a column name when converting"}, {"index_id": 641, "dataset": "CP", "variable": "CPTEST", "label": "Name of Measurement, Test or Examination", "core": "Req", "variable_type": "C", "role": "Synonym Qualifier", "dataset_level": "Oncology", "embedding_text": "cp domain ; name of measurement, test or examination ; variable cptest ; long name for cptestcd. for cell phenotyping, the name (often abbreviated) of the cell population, as it is generally ac"}, {"index_id": 642, "dataset": "CP", "variable": "CPCAT", "label": "Category", "core": "Perm", "variable_type": "C", "role": "Grouping Qualifier", "dataset_level": "Oncology", "embedding_text": "cp domain ; category ; variable cpcat ; used to define a category of topic-variable values across subjects. examples: \"immunophenotyping\", \"cell function\", \"tar"}, {"index_id": 643, "dataset": "CP", "variable": "CPSCAT", "label": "Subcategory", "core": "Perm", "variable_type": "C", "role": "Grouping Qualifier", "dataset_level": "Oncology", "embedding_text": "cp domain ; subcategory ; variable cpscat ; a further categorization of cpcat."}, {"index_id": 644, "dataset": "CP", "variable": "CPORRES", "la