[{"dataset": "AE", "label": "Adverse Events", "layout": "STUDYID USUBJID AESTDTC AEDECOD", "level": "Corporate", "domain_class": "Events", "description": "One record per adverse event per subject"}, {"dataset": "AG", "label": "Procedure Agents", "layout": "STUDYID USUBJID AGSTDTC AGCAT AGTRT", "level": "Respiratory and Immunology", "domain_class": "Interventions", "description": "One record per recorded intervention occurrence per subject"}, {"dataset": "APMH", "label": "Associated Persons Medical History", "layout": "STUDYID APID RSUBJID SREL MHTERM", "level": "Corporate", "domain_class": "Events", "description": "One record per medical history event per associated person"}, {"dataset": "APRELSUB", "label": "Associated Persons Related to Subjects", "layout": "STUDYID SREL RSUBJID", "level": "Corporate", "domain_class": "Relationship", "description": "One record per relationship"}, {"dataset": "BE", "label": "Biospecimen Events", "layout": "STUDYID USUBJID BESTDTC BETERM", "level": "Corporate", "domain_class": "Events", "description": "One record per instance per biospecimen event per biospecimen identifier per subject"}, {"dataset": "BS", "label": "Biospecimen Findings", "layout": "STUDYID USUBJID BSDTC BSCAT BSTESTCD", "level": "Corporate", "domain_class": "Findings", "description": "One record per measurement per biospecimen identifier per subject"}, {"dataset": "CE", "label": "Clinical Events", "layout": "STUDYID USUBJID CESTDTC CECAT CETERM", "level": "Corporate", "domain_class": "Events", "description": "One record per event per subject"}, {"dataset": "CM", "label": "Concomitant/Prior Medications", "layout": "STUDYID USUBJID CMSTDTC CMTRT", "level": "Corporate", "domain_class": "Interventions", "description": "One record per recorded intervention occurrence or constant-dosing interval per subject"}, {"dataset": "CO", "label": "Comments", "layout": "STUDYID USUBJID COVAL", "level": "Corporate", "domain_class": "Special Purpose", "description": "One record per comment per subject"}, {"dataset": "CP", "label": "Cell Phenotype Findings", "layout": "STUDYID USUBJID VISIT CPTPT CPDTC CPTESTCD", "level": "Oncology", "domain_class": "Findings", "description": "One record per test per specimen per timepoint per visit per subject"}, {"dataset": "CV", "label": "Cardiovascular System Findings", "layout": "STUDYID USUBJID CVDTC CVCAT CVTESTCD", "level": "Corporate", "domain_class": "Findings", "description": "One record per finding or result per time point per visit per subject"}, {"dataset": "DA", "label": "Product Accountability", "layout": "STUDYID USUBJID DADTC DATESTCD DASPID", "level": "Corporate", "domain_class": "Findings", "description": "One record per product accountability finding per subject"}, {"dataset": "DD", "label": "Death Details", "layout": "STUDYID USUBJID DDDTC DDTESTCD", "level": "Corporate", "domain_class": "Findings", "description": "One record per finding per subject"}, {"dataset": "DE", "label": "Device Events", "layout": "STUDYID USUBJID SPDEVID DETERM DESTDTC", "level": "Corporate", "domain_class": "Events", "description": "One record per subject per event per device"}, {"dataset": "DI", "label": "Device Identifiers", "layout": "STUDYID SPDEVID", "level": "Corporate", "domain_class": "Special Purpose", "description": "One record per device identifier per device"}, {"dataset": "DM", "label": "Demographics", "layout": "STUDYID USUBJID", "level": "Corporate", "domain_class": "Special Purpose", "description": "One record per subject"}, {"dataset": "DO", "label": "Device Properties", "layout": "STUDYID SPDEVID DOTESTCD", "level": "Corporate", "domain_class": "Findings", "description": "One record per property per device"}, {"dataset": "DR", "label": "Device-Subject Relationships", "layout": "STUDYID USUBJID SPDEVID", "level": "Corporate", "domain_class": "Relationship", "description": "One record per device/subject combination"}, {"dataset": "DS", "label": "Disposition", "layout": "STUDYID USUBJID DSSTDTC DSCAT DSDECOD", "level": "Corporate", "domain_class": "Events", "description": "One record per disposition status or protocol milestone per subject"}, {"dataset": "DT", "label": "Device Tracking and Disposition", "layout": "STUDYID SPDEVID DTTERM DTSTDTC", "level": "Corporate", "domain_class": "Events", "description": "One record per device tracking event"}, {"dataset": "DU", "label": "Device-In-Use", "layout": "STUDYID USUBJID SPDEVID DUTESTCD DUDTC", "level": "Corporate", "domain_class": "Findings", "description": "One record per property or setting per time point per visit or test date per subject"}, {"dataset": "DV", "label": "Protocol Deviations", "layout": "STUDYID USUBJID DVSTDTC DVTERM", "level": "Corporate", "domain_class": "Events", "description": "One record per protocol deviation per subject"}, {"dataset": "DX", "label": "Device Exposure", "layout": "STUDYID USUBJID SPDEVID DXSTDTC DXTRT", "level": "Corporate", "domain_class": "Interventions", "description": "One record per recorded intervention occurrence or constant treatment interval per subject"}, {"dataset": "EC", "label": "Exposure as Collected", "layout": "STUDYID USUBJID ECSTDTC ECTRT", "level": "Corporate", "domain_class": "Interventions", "description": "One record per protocol-specified study treatment, collected-dosing interval, per subject, per mood"}, {"dataset": "EG", "label": "ECG Test Results", "layout": "STUDYID USUBJID EGDTC EGCAT EGTESTCD", "level": "Corporate", "domain_class": "Findings", "description": "One record per ECG observation per replicate per time point or one record per ECG observation per beat per visit per subject"}, {"dataset": "EX", "label": "Exposure", "layout": "STUDYID USUBJID EXSTDTC EXTRT", "level": "Corporate", "domain_class": "Interventions", "description": "One record per protocol-specified study treatment, constant-dosing interval, per subject"}, {"dataset": "FA", "label": "Findings About Events or InterventionsFA", "layout": "STUDYID USUBJID FACAT FADTC FAOBJ FATESTCD", "level": "Corporate", "domain_class": "Findings About", "description": "One record per finding, per object, per time point, per visit per subject"}, {"dataset": "FAAE", "label": "Findings About Adverse Events", "layout": "STUDYID USUBJID FACAT FADTC FAOBJ FATESTCD", "level": "Corporate", "domain_class": "Findings About", "description": "One record per Finding per subject"}, {"dataset": "FACE", "label": "Findings About Clinical Events", "layout": "STUDYID USUBJID FACAT FADTC FAOBJ FATESTCD", "level": "Corporate", "domain_class": "Findings About", "description": "One record per Finding per subject"}, {"dataset": "FAEX", "label": "Findings About Exposure", "layout": "STUDYID USUBJID FACAT FADTC FAOBJ FATESTCD", "level": "Corporate", "domain_class": "Findings About", "description": "One record per Finding per subject"}, {"dataset": "FAHO", "label": "Findings About Healthcare Encounters", "layout": "STUDYID USUBJID FACAT FADTC FAOBJ FATESTCD", "level": "Corporate", "domain_class": "Findings About", "description": "One record per Finding per subject"}, {"dataset": "FAMH", "label": "Findings About Medical History", "layout": "STUDYID USUBJID FACAT FADTC FAOBJ FATESTCD", "level": "Corporate", "domain_class": "Findings About", "description": "One record per Finding per subject"}, {"dataset": "FAPR", "label": "Findings About Procedures", "layout": "STUDYID USUBJID FACAT FADTC FAOBJ FATESTCD", "level": "Corporate", "domain_class": "Findings About", "description": "One record per Finding per subject"}, {"dataset": "FAYB", "label": "Findings About Adjudicated Events", "layout": "STUDYID USUBJID FACAT FASCAT FADTC FAOBJ FATESTCD FALNKID", "level": "", "domain_class": "Findings About", "description": "One record per Finding per subject"}, {"dataset": "FAYM", "label": "Findings About Medical Error", "layout": "STUDYID USUBJID FACAT FADTC FAOBJ FATESTCD", "level": "Corporate", "domain_class": "Findings About", "description": "One record per Finding per subject"}, {"dataset": "FT", "label": "Functional Tests", "layout": "STUDYID USUBJID FTDTC FTCAT FTTESTCD", "level": "Corporate", "domain_class": "Findings", "description": "One record per Functional Test finding per time point per visit per subject"}, {"dataset": "GF", "label": "Genomics Findings", "layout": "STUDYID USUBJID GFCAT GFSPEC GFTESTCD", "level": "Corporate", "domain_class": "Findings", "description": "One record per finding per observation per biospecimen per subject"}, {"dataset": "HO", "label": "Healthcare Encounters", "layout": "STUDYID USUBJID HOSTDTC HOTERM", "level": "Corporate", "domain_class": "Events", "description": "One record per healthcare encounter per subject"}, {"dataset": "IE", "label": "Inclusion/Exclusion Criteria Not Met", "layout": "STUDYID USUBJID IEDTC IECAT IETESTCD", "level": "Corporate", "domain_class": "Findings", "description": "One record per inclusion/exclusion criterion not met per subject"}, {"dataset": "IS", "label": "Immunogenicity Specimen Assessments", "layout": "STUDYID USUBJID ISDTC ISCAT ISTESTCD", "level": "Corporate", "domain_class": "Findings", "description": "One record per test per visit per subject"}, {"dataset": "LB", "label": "Laboratory Test Results", "layout": "STUDYID USUBJID LBDTC LBCAT LBSPID", "level": "Corporate", "domain_class": "Findings", "description": "One record per lab test per time point per visit per subject"}, {"dataset": "LBREF", "label": "Laboratory Reference Data", "layout": "STUDYID AZTESTCD UNIT", "level": "Corporate", "domain_class": "Findings", "description": "One record per unit per laboratory parameter"}, {"dataset": "LC", "label": "Laboratory Findings in Conv Units", "layout": "STUDYID USUBJID LCDTC LCCAT LCSPID", "level": "Corporate", "domain_class": "Findings", "description": "One record per lab test per time point per visit per subject"}, {"dataset": "MB", "label": "Microbiology Specimen", "layout": "STUDYID USUBJID MBDTC MBREFID MBTESTCD", "level": "Corporate", "domain_class": "Findings", "description": "One record per microbiology specimen finding per time point per visit per subject"}, {"dataset": "MH", "label": "Medical History", "layout": "STUDYID USUBJID MHSTDTC MHCAT MHTERM MHEVDTYP", "level": "Corporate", "domain_class": "Events", "description": "One record per medical history event per subject"}, {"dataset": "MI", "label": "Microscopic Findings", "layout": "STUDYID USUBJID MIDTC MICAT MITESTCD", "level": "Corporate", "domain_class": "Findings", "description": "One record per finding per specimen per subject"}, {"dataset": "MK", "label": "Musculoskeletal System Findings", "layout": "STUDYID USUBJID MKDTC MKCAT MKTESTCD", "level": "Corporate", "domain_class": "Findings", "description": "One record per assessment per visit per subject"}, {"dataset": "ML", "label": "Meal Data", "layout": "STUDYID USUBJID MLSTDTC MLCAT MLTRT", "level": "Corporate", "domain_class": "Interventions", "description": "One record per food product occurrence or constant intake interval per subject"}, {"dataset": "MS", "label": "Microbiology Susceptibility", "layout": "STUDYID USUBJID MSDTC MSTESTCD", "level": "Corporate", "domain_class": "Findings", "description": "One record per microbiology susceptibility test (or other organism-related finding) per organism found in MB"}, {"dataset": "NV", "label": "Nervous System Findings", "layout": "STUDYID USUBJID NVDTC NVCAT NVLOC NVTESTCD", "level": "Corporate", "domain_class": "Findings", "description": "One record per finding per location per time point per visit per subject"}, {"dataset": "OE", "label": "Ophthalmic Examinations", "layout": "STUDYID USUBJID OEDTC OECAT OELOC OEMETHOD OETESTCD", "level": "Corporate", "domain_class": "Findings", "description": "One record per ophthalmic finding per method per location, per time point per visit per subject"}, {"dataset": "OI", "label": "Non-host Organism Identifiers", "layout": "STUDYID NHOID OIPARMCD", "level": "Corporate", "domain_class": "Study Reference", "description": "One record per taxon per non-host organism"}, {"dataset": "PC", "label": "Pharmacokinetics Concentrations", "layout": "STUDYID USUBJID PCDTC PCSPEC PCTESTCD", "level": "Corporate", "domain_class": "Findings", "description": "One record per sample characteristic or time-point concentration per reference time point or per analyte per subject"}, {"dataset": "PE", "label": "Physical Examination", "layout": "STUDYID USUBJID PEDTC PETESTCD", "level": "Corporate", "domain_class": "Findings", "description": "One record per body system or abnormality per visit per subject"}, {"dataset": "PF", "label": "Pharmacogenomics Findings", "layout": "STUDYID USUBJID PFDTC PFCAT PFMETHOD PFTESTCD", "level": "Corporate", "domain_class": "Findings", "description": "one record per method/setup observation per specimen collected, per timepoint, per subject"}, {"dataset": "PP", "label": "Pharmacokinetics Parameters", "layout": "STUDYID USUBJID PPGRPID PPCAT PPSPEC PPTESTCD", "level": "Corporate", "domain_class": "Findings", "description": "One record per PK parameter per time-concentration profile per modeling method per subject"}, {"dataset": "PR", "label": "Procedures", "layout": "STUDYID USUBJID PRSTDTC PRCAT PRTRT", "level": "Corporate", "domain_class": "Interventions", "description": "One record per recorded procedure per occurrence per subject"}, {"dataset": "QS", "label": "Questionnaires", "layout": "STUDYID USUBJID QSCAT QSDTC QSTESTCD", "level": "Corporate", "domain_class": "Findings", "description": "One record per questionnaire per question per time point per visit per subject"}, {"dataset": "RE", "label": "Respiratory System Findings", "layout": "STUDYID USUBJID REDTC RECAT RETESTCD", "level": "Respiratory and Immunology", "domain_class": "Findings", "description": "One record per finding or result per time point per visit per subject"}, {"dataset": "RELREC", "label": "Related Records", "layout": "STUDYID USUBJID RELID RDOMAIN IDVAR", "level": "Corporate", "domain_class": "Relationship", "description": "One record per related record, group of records or dataset"}, {"dataset": "RELSPEC", "label": "Related Specimens", "layout": "STUDYID USUBJID REFID", "level": "Corporate", "domain_class": "Relationship", "description": "One record per specimen identifier per subject"}, {"dataset": "RELSUB", "label": "Related Subjects", "layout": "STUDYID USUBJID SREL RSUBJID", "level": "Corporate", "domain_class": "Relationship", "description": "One record per relationship per related subject per subject"}, {"dataset": "RP", "label": "Reproductive System Findings", "layout": "STUDYID USUBJID RPDTC RPCAT RPTESTCD", "level": "Corporate", "domain_class": "Findings", "description": "One record per finding or result per time point per visit per subject"}, {"dataset": "RS", "label": "Disease Response and Clin Classification", "layout": "STUDYID USUBJID RSDTC RSTESTCD", "level": "Corporate", "domain_class": "Findings", "description": "One record per response assessment or clinical classification assessment per time point per visit per subject per assessor per medical evaluator"}, {"dataset": "SC", "label": "Subject Characteristics", "layout": "STUDYID USUBJID SCDTC SCTESTCD", "level": "Corporate", "domain_class": "Findings", "description": "One record per characteristic per visit per subject"}, {"dataset": "SE", "label": "Subject Elements", "layout": "STUDYID USUBJID SESTDTC", "level": "Corporate", "domain_class": "Special Purpose", "description": "One record per actual Element per subject"}, {"dataset": "SM", "label": "Subject Disease Milestones", "layout": "STUDYID USUBJID MIDSTYPE MIDS SMSTDTC SMENDTC", "level": "Corporate", "domain_class": "Special Purpose", "description": "One record per Disease Milestone per subject"}, {"dataset": "SR", "label": "Skin Response", "layout": "STUDYID USUBJID SRCAT SRDTC SROBJ SRTESTCD", "level": "Corporate", "domain_class": "Findings About", "description": "One record per finding, per object, per time point, per visit per subject"}, {"dataset": "SS", "label": "Subject Status", "layout": "STUDYID USUBJID SSDTC SSCAT SSTESTCD", "level": "Corporate", "domain_class": "Findings", "description": "One record per status per visit per subject"}, {"dataset": "SU", "label": "Substance Use", "layout": "STUDYID USUBJID SUSTDTC SUTRT", "level": "Corporate", "domain_class": "Interventions", "description": "One record per substance type per reported occurrence per subject"}, {"dataset": "SUPPQUAL", "label": "Supplemental Qualifiers", "layout": "STUDYID RDOMAIN USUBJID IDVAR IDVARVAL QNAM", "level": "", "domain_class": "Relationship", "description": "One record per IDVAR, IDVARVAL, and QNAM value per subject"}, {"dataset": "SV", "label": "Subject Visits", "layout": "STUDYID USUBJID SVSTDTC VISITNUM", "level": "Corporate", "domain_class": "Special Purpose", "description": "One record per subject per actual visit"}, {"dataset": "TA", "label": "Trial Arms", "layout": "STUDYID ARMCD TAETORD", "level": "Corporate", "domain_class": "Trial Design", "description": "One record per planned Element per Arm"}, {"dataset": "TADEF", "label": "Trial Arms Definitions", "layout": "STUDYID ARMCD TAETORD", "level": "Corporate", "domain_class": "Trial Design", "description": "One record per planned Element per Arm"}, {"dataset": "TD", "label": "Trial Disease Assessments", "layout": "STUDYID TDORDER TDTGTPAI", "level": "Corporate", "domain_class": "Trial Design", "description": "One record per planned constant assessment period"}, {"dataset": "TE", "label": "Trial Elements", "layout": "STUDYID ETCD", "level": "Corporate", "domain_class": "Trial Design", "description": "One record per planned Element"}, {"dataset": "TI", "label": "Trial Inclusion/Exclusion Criteria", "layout": "STUDYID IETESTCD TIVERS", "level": "Corporate", "domain_class": "Trial Design", "description": "One record per I/E crierion"}, {"dataset": "TM", "label": "Trial Disease Milestones", "layout": "STUDYID MIDSTYPE", "level": "Corporate", "domain_class": "Trial Design", "description": "One record per Disease Milestone type"}, {"dataset": "TR", "label": "Tumor/Lesion Results", "layout": "STUDYID USUBJID TRDTC TRTESTCD", "level": "Oncology", "domain_class": "Findings", "description": "One record per tumor measurement/assessment per visit per subject per assessor"}, {"dataset": "TS", "label": "Trial Summary", "layout": "STUDYID TSPARMCD TSVAL", "level": "Corporate", "domain_class": "Trial Design", "description": "One record per trial summary parameter value"}, {"dataset": "TU", "label": "Tumor/Lesion Identification", "layout": "STUDYID USUBJID TUDTC TUTESTCD", "level": "Oncology", "domain_class": "Findings", "description": "One record per identified tumor per subject per assessor"}, {"dataset": "TV", "label": "Trial Visits", "layout": "STUDYID ARMCD", "level": "Corporate", "domain_class": "Trial Design", "description": "One record per planned Visit per Arm"}, {"dataset": "UNITCONV", "label": "Unit Conversion", "layout": "STUDYID UCTESTCD UCSTRESU UCORRESU", "level": "Corporate", "domain_class": "Findings", "description": "One record per unit per laboratory parameter"}, {"dataset": "UR", "label": "Urinary System Findings", "layout": "STUDYID USUBJID URDTC URCAT URTESTCD", "level": "Corporate", "domain_class": "Findings", "description": "One record per finding per location per per visit per subject"}, {"dataset": "VS", "label": "Vital Signs", "layout": "STUDYID USUBJID VSDTC VSCAT VSTESTCD", "level": "Corporate", "domain_class": "Findings", "description": "One record per vital sign measurement per time point per visit per subject"}, {"dataset": "XC", "label": "Facilitating Interventions", "layout": "STUDYID USUBJID XCSTDTC XCCAT XCTRT", "level": "Corporate", "domain_class": "Interventions", "description": "One record per facilitating intervention per subject"}, {"dataset": "YB", "label": "Adjudicated Events", "layout": "STUDYID USUBJID YBSTDTC YBCAT YBTERM", "level": "Corporate", "domain_class": "Events", "description": "One record per event per subject"}, {"dataset": "YM", "label": "Medication Error", "layout": "STUDYID USUBJID YMSTDTC YMCAT YMTERM", "level": "Corporate", "domain_class": "Events", "description": "One record per medication error term per group identifier per subject."}, {"dataset": "ZA", "label": "Event Adjudication Outcomes", "layout": "STUDYID USUBJID ZASCAT ZACAT ZADTC ZAOBJ ZATESTCD", "level": "Corporate", "domain_class": "Findings About", "description": "One record per finding  per adjudication time point per adjudicator per subject"}, {"dataset": "ZC", "label": "Health Care Resource Utilization", "layout": "STUDYID USUBJID ZCDTC ZCCAT ZCTESTCD", "level": "Corporate", "domain_class": "Findings", "description": "One record per finding per time point per visit per subject"}, {"dataset": "ZF", "label": "Social StatusZF", "layout": "STUDYID USUBJID ZFDTC ZFCAT ZFTESTCD", "level": "Corporate", "domain_class": "Findings", "description": "One record per finding per time point per visit per subject"}, {"dataset": "ZM", "label": "Organ Measurements", "layout": "STUDYID USUBJID ZMDTC ZMCAT ZMTESTCD", "level": "Corporate", "domain_class": "Findings", "description": "One record per finding per time point per visit per subject"}]