[{"dataset": "AE", "variable": "STUDYID", "label": "Study Identifier", "variable_type": "C", "length": "21", "core": "Req", "role": "Identifier", "format_field": "", "key": "1", "seq": "1", "origin": "Protocol", "dataset_level": "Corporate", "cdisc_notes": "Unique identifier for a study.", "az_notes": ""}, {"dataset": "AE", "variable": "DOMAIN", "label": "Domain Abbreviation", "variable_type": "C", "length": "8", "core": "Req", "role": "Identifier", "format_field": "(DOMAIN)", "key": "", "seq": "2", "origin": "Assigned", "dataset_level": "Corporate", "cdisc_notes": "Two-character abbreviation for the domain.", "az_notes": ""}, {"dataset": "AE", "variable": "USUBJID", "label": "Unique Subject Identifier", "variable_type": "C", "length": "30", "core": "Req", "role": "Identifier", "format_field": "", "key": "2", "seq": "3", "origin": "Derived", "dataset_level": "Corporate", "cdisc_notes": "Identifier used to uniquely identify a subject across all studies for all applications or submissions involving the product.", "az_notes": ""}, {"dataset": "AE", "variable": "SPDEVID", "label": "Sponsor Device Identifier", "variable_type": "C", "length": "40", "core": "Perm", "role": "Identifier", "format_field": "", "key": "", "seq": "4", "origin": "", "dataset_level": "Corporate", "cdisc_notes": "A sequence of characters used by the sponsor to uniquely identify a specific device. Used to represent a device associated in some way with the adverse event. SPDEVID values are defined in the Device Identifiers (DI) domain.", "az_notes": ""}, {"dataset": "AE", "variable": "AESEQ", "label": "Sequence Number", "variable_type": "N", "length": "8", "core": "Req", "role": "Identifier", "format_field": "", "key": "", "seq": "5", "origin": "Derived", "dataset_level": "Corporate", "cdisc_notes": "Sequence number given to ensure uniqueness of subject records within a domain. May be any valid number.", "az_notes": ""}, {"dataset": "AE", "variable": "AEGRPID", "label": "Group ID", "variable_type": "C", "length": "40", "core": "Perm", "role": "Identifier", "format_field": "", "key": "", "seq": "6", "origin": "Derived", "dataset_level": "Corporate", "cdisc_notes": "Used to tie together a block of related records in a single domain for a subject.", "az_notes": ""}, {"dataset": "AE", "variable": "AEREFID", "label": "Reference ID", "variable_type": "C", "length": "40", "core": "Perm", "role": "Identifier", "format_field": "", "key": "", "seq": "7", "origin": "Assigned", "dataset_level": "Corporate", "cdisc_notes": "Internal or external identifier such as a serial number on an SAE reporting form.", "az_notes": ""}, {"dataset": "AE", "variable": "AESPID", "label": "Sponsor-Defined Identifier", "variable_type": "C", "length": "40", "core": "Perm", "role": "Identifier", "format_field": "", "key": "", "seq": "8", "origin": "CRF", "dataset_level": "Corporate", "cdisc_notes": "Sponsor-defined identifier. It may be preprinted on the CRF as an explicit line identifier or defined in the sponsor's operational database. Example: Line number on an Adverse Events CRF page.", "az_notes": ""}, {"dataset": "AE", "variable": "AELNKID", "label": "Link ID", "variable_type": "C", "length": "40", "core": "Perm", "role": "Identifier", "format_field": "", "key": "", "seq": "9", "origin": "Assigned", "dataset_level": "Corporate", "cdisc_notes": "Identifier used to link related records across domains. This may be a one-to-one or a one-to-many relationship. For example, a single tumor may have multiple measurements/assessments performed at each study visit.", "az_notes": ""}, {"dataset": "AE", "variable": "AELNKGRP", "label": "Link Group ID", "variable_type": "C", "length": "40", "core": "Perm", "role": "Identifier", "format_field": "", "key": "", "seq": "10", "origin": "Assigned", "dataset_level": "Corporate", "cdisc_notes": "Identifier used to link related records across domains. This will usually be a many-to-one relationship. For example, multiple tumor measurements/assessments will contribute to a single response to therapy determination record.", "az_notes": ""}, {"dataset": "AE", "variable": "AETERM", "label": "Reported Term for the Adverse Event", "variable_type": "C", "length": "200", "core": "Req", "role": "Topic", "format_field": "", "key": "", "seq": "11", "origin": "CRF", "dataset_level": "Corporate", "cdisc_notes": "Verbatim name of the event.", "az_notes": ""}, {"dataset": "AE", "variable": "AEMODIFY", "label": "Modified Reported Term", "variable_type": "C", "length": "200", "core": "Perm", "role": "Synonym Qualifier", "format_field": "", "key": "", "seq": "12", "origin": "Assigned", "dataset_level": "Corporate", "cdisc_notes": "If AETERM is modified to facilitate coding, then AEMODIFY will contain the modified text.", "az_notes": ""}, {"dataset": "AE", "variable": "AELLT", "label": "Lowest Level Term", "variable_type": "C", "length": "200", "core": "Exp", "role": "Variable Qualifier", "format_field": "MedDRA", "key": "", "seq": "13", "origin": "Assigned", "dataset_level": "Corporate", "cdisc_notes": "Dictionary-derived text description of the lowest level term.", "az_notes": ""}, {"dataset": "AE", "variable": "AELLTCD", "label": "Lowest Level Term Code", "variable_type": "N", "length": "8", "core": "Exp", "role": "Variable Qualifier", "format_field": "MedDRA", "key": "", "seq": "14", "origin": "Assigned", "dataset_level": "Corporate", "cdisc_notes": "Dictionary-derived code for the lowest level term.", "az_notes": ""}, {"dataset": "AE", "variable": "AEDECOD", "label": "Dictionary-Derived Term", "variable_type": "C", "length": "200", "core": "Req", "role": "Synonym Qualifier", "format_field": "MedDRA", "key": "4", "seq": "15", "origin": "Assigned", "dataset_level": "Corporate", "cdisc_notes": "Dictionary-derived text description of AETERM or AEMODIFY. Equivalent to the Preferred Term (PT in MedDRA). The sponsor is expected to provide the dictionary name and version used to map the terms utilizing the external codelist element in the Define-XML document.", "az_notes": ""}, {"dataset": "AE", "variable": "AEPTCD", "label": "Preferred Term Code", "variable_type": "N", "length": "8", "core": "Exp", "role": "Variable Qualifier", "format_field": "MedDRA", "key": "", "seq": "16", "origin": "Assigned", "dataset_level": "Corporate", "cdisc_notes": "Dictionary-derived code for the preferred term.", "az_notes": ""}, {"dataset": "AE", "variable": "AEHLT", "label": "High Level Term", "variable_type": "C", "length": "200", "core": "Exp", "role": "Variable Qualifier", "format_field": "MedDRA", "key": "", "seq": "17", "origin": "Assigned", "dataset_level": "Corporate", "cdisc_notes": "Dictionary-derived text description of the high level term for the primary system organ class (SOC).", "az_notes": ""}, {"dataset": "AE", "variable": "AEHLTCD", "label": "High Level Term Code", "variable_type": "N", "length": "8", "core": "Exp", "role": "Variable Qualifier", "format_field": "MedDRA", "key": "", "seq": "18", "origin": "Assigned", "dataset_level": "Corporate", "cdisc_notes": "Dictionary-derived code for the high level term for the primary SOC.", "az_notes": ""}, {"dataset": "AE", "variable": "AEHLGT", "label": "High Level Group Term", "variable_type": "C", "length": "200", "core": "Exp", "role": "Variable Qualifier", "format_field": "MedDRA", "key": "", "seq": "19", "origin": "Assigned", "dataset_level": "Corporate", "cdisc_notes": "Dictionary-derived text description of the high level group term for the primary SOC.", "az_notes": ""}, {"dataset": "AE", "variable": "AEHLGTCD", "label": "High Level Group Term Code", "variable_type": "N", "length": "8", "core": "Exp", "role": "Variable Qualifier", "format_field": "MedDRA", "key": "", "seq": "20", "origin": "Assigned", "dataset_level": "Corporate", "cdisc_notes": "Dictionary-derived code for the high level group term for the primary SOC.", "az_notes": ""}, {"dataset": "AE", "variable": "AECAT", "label": "Category for Adverse Event", "variable_type": "C", "length": "200", "core": "Perm", "role": "Grouping Qualifier", "format_field": "", "key": "", "seq": "21", "origin": "Assigned", "dataset_level": "Corporate", "cdisc_notes": "Used to define a category of related records. Examples: \"BLEEDING\", \"NEUROPSYCHIATRIC\".", "az_notes": ""}, {"dataset": "AE", "variable": "AESCAT", "label": "Subcategory for Adverse Event", "variable_type": "C", "length": "40", "core": "Perm", "role": "Grouping Qualifier", "format_field": "", "key": "", "seq": "22", "origin": "Assigned", "dataset_level": "Corporate", "cdisc_notes": "A further categorization of adverse event. Example: \"NEUROLOGIC\".", "az_notes": ""}, {"dataset": "AE", "variable": "AEPRESP", "label": "Pre-Specified Adverse Event", "variable_type": "C", "length": "1", "core": "Perm", "role": "Variable Qualifier", "format_field": "(NY)", "key": "", "seq": "23", "origin": "Assigned", "dataset_level": "Corporate", "cdisc_notes": "A value of \"Y\" indicates that this adverse event was prespecified on the CRF. Values are null for spontaneously reported events (i.e., those collected as free-text verbatim terms).", "az_notes": ""}, {"dataset": "AE", "variable": "AEBODSYS", "label": "Body System or Organ Class", "variable_type": "C", "length": "200", "core": "Exp", "role": "Record Qualifier", "format_field": "", "key": "", "seq": "24", "origin": "Assigned", "dataset_level": "Corporate", "cdisc_notes": "Dictionary derived. Body system or organ class used by the sponsor from the coding dictionary (e.g., MedDRA). When using a multi-axial dictionary such as MedDRA, this should contain the SOC used for the sponsor's analyses and summary tables, which may not necessarily be the primary SOC.", "az_notes": ""}, {"dataset": "AE", "variable": "AEBDSYCD", "label": "Body System or Organ Class Code", "variable_type": "N", "length": "8", "core": "Exp", "role": "Variable Qualifier", "format_field": "MedDRA", "key": "", "seq": "25", "origin": "Assigned", "dataset_level": "Corporate", "cdisc_notes": "Dictionary derived. Code for the body system or organ class used by the sponsor. When using a multi-axial dictionary such as MedDRA, this should contain the SOC used for the sponsor's analyses and summary tables, which may not necessarily be the primary SOC.", "az_notes": ""}, {"dataset": "AE", "variable": "AESOC", "label": "Primary System Organ Class", "variable_type": "C", "length": "200", "core": "Exp", "role": "Variable Qualifier", "format_field": "MedDRA", "key": "", "seq": "26", "origin": "Assigned", "dataset_level": "Corporate", "cdisc_notes": "Dictionary-derived text description of the primary SOC. Will be the same as AEBODSYS if the primary SOC was used for analysis.", "az_notes": ""}, {"dataset": "AE", "variable": "AESOCCD", "label": "Primary System Organ Class Code", "variable_type": "N", "length": "8", "core": "Exp", "role": "Variable Qualifier", "format_field": "MedDRA", "key": "", "seq": "27", "origin": "Assigned", "dataset_level": "Corporate", "cdisc_notes": "Dictionary-derived code for the primary SOC. Will be the same as AEBDSYCD if the primary SOC was used for analysis.", "az_notes": ""}, {"dataset": "AE", "variable": "AELOC", "label": "Location of Event", "variable_type": "C", "length": "40", "core": "Perm", "role": "Record Qualifier", "format_field": "(LOC)", "key": "", "seq": "28", "origin": "CRF", "dataset_level": "Corporate", "cdisc_notes": "Describes anatomical location relevant for the event (e.g., \"ARM\" for skin rash).", "az_notes": ""}, {"dataset": "AE", "variable": "AESEV", "label": "Severity/Intensity", "variable_type": "C", "length": "20", "core": "Perm", "role": "Record Qualifier", "format_field": "(AESEV)", "key": "", "seq": "29", "origin": "CRF", "dataset_level": "Corporate", "cdisc_notes": "The severity or intensity of the event. Examples: \"MILD\", \"MODERATE\", \"SEVERE\".", "az_notes": ""}, {"dataset": "AE", "variable": "AESER", "label": "Serious Event", "variable_type": "C", "length": "1", "core": "Exp", "role": "Record Qualifier", "format_field": "(NY)", "key": "", "seq": "30", "origin": "CRF", "dataset_level": "Corporate", "cdisc_notes": "Is this a serious event? Valid values are \"Y\" and \"N\".", "az_notes": ""}, {"dataset": "AE", "variable": "AEACN", "label": "Action Taken with Study Treatment", "variable_type": "C", "length": "200", "core": "Exp", "role": "Record Qualifier", "format_field": "(ACN)", "key": "", "seq": "31", "origin": "CRF", "dataset_level": "Corporate", "cdisc_notes": "Describes changes to the study treatment as a result of the event. AEACN is specifically for the relationship to study treatment. AEACNOTH is for actions unrelated to dose adjustments of study treatment. Examples of AEACN values include ICH E2B values: \"DRUG WITHDRAWN\", \"DOSE REDUCED\", \"DOSE INCREASED\", \"DOSE NOT CHANGED\", \"UNKNOWN\" and \"NOT APPLICABLE\".", "az_notes": ""}, {"dataset": "AE", "variable": "AEACNOTH", "label": "Other Action Taken", "variable_type": "C", "length": "200", "core": "Perm", "role": "Record Qualifier", "format_field": "", "key": "", "seq": "32", "origin": "CRF", "dataset_level": "Corporate", "cdisc_notes": "Describes other actions taken as a result of the event that are unrelated to dose adjustments of study treatment. Usually reported as free text. Example: \"TREATMENT UNBLINDED. PRIMARY CARE PHYSICIAN NOTIFIED\".", "az_notes": ""}, {"dataset": "AE", "variable": "AEACNDEV", "label": "Action Taken with Device", "variable_type": "C", "length": "200", "core": "Perm", "role": "Record Qualifier", "format_field": "(DEACNDEV)", "key": "", "seq": "33", "origin": "", "dataset_level": "Corporate", "cdisc_notes": "An action taken with a device as the result of the event. The device may or may not be a device under study.", "az_notes": ""}, {"dataset": "AE", "variable": "AEREL", "label": "Causality", "variable_type": "C", "length": "200", "core": "Exp", "role": "Record Qualifier", "format_field": "(AEREL)", "key": "", "seq": "34", "origin": "CRF", "dataset_level": "Corporate", "cdisc_notes": "Records the investigator's opinion as to the causality of the event to the treatment. ICH does not establish any required or recommended terms for non-device relatedness. ICH E2A and E2B examples include (up-cased here for alignment to SDTM conventions) terms such as \"NOT RELATED\", \"UNLIKELY RELATED\", \"POSSIBLY RELATED\", \"RELATED\", but these example terms do not establish any conventions or expectations. Controlled terminology may be defined in the future. Check with regulatory authority for population of this variable.", "az_notes": ""}, {"dataset": "AE", "variable": "AERLDEV", "label": "Relationship of Event to Device", "variable_type": "C", "length": "200", "core": "Perm", "role": "Record Qualifier", "format_field": "", "key": "", "seq": "35", "origin": "", "dataset_level": "Corporate", "cdisc_notes": "A judgment as to the likelihood that the device caused the adverse event. The relationship is to a device identified in the data (i.e., has an SPDEVID). The device may be ancillary or under study. \\n Terminology: \\n * In the EU, follow the European Commission Guidelines on Medical Devices, Clinical Investigations: SAE Reporting (MEDDEV 2.7/3) (e.g., Not Related, Unlikely, Possible, Probable, Causal Relationship), with device-specific definitions. \\n * No required Controlled Terminology in US.", "az_notes": ""}, {"dataset": "AE", "variable": "AERELNST", "label": "Relationship to Non-Study Treatment", "variable_type": "C", "length": "200", "core": "Perm", "role": "Record Qualifier", "format_field": "", "key": "", "seq": "36", "origin": "CRF", "dataset_level": "Corporate", "cdisc_notes": "Records the investigator's opinion as to whether the event may have been due to a treatment other than study drug. May be reported as free text. Example: \"MORE LIKELY RELATED TO ASPIRIN USE\".", "az_notes": ""}, {"dataset": "AE", "variable": "AEPATT", "label": "Pattern of Adverse Event", "variable_type": "C", "length": "40", "core": "Perm", "role": "Record Qualifier", "format_field": "", "key": "", "seq": "37", "origin": "CRF", "dataset_level": "Corporate", "cdisc_notes": "Used to indicate the pattern of the event over time. Examples: \"INTERMITTENT\", \"CONTINUOUS\", \"SINGLE EVENT\".", "az_notes": ""}, {"dataset": "AE", "variable": "AEOUT", "label": "Outcome of Adverse Event", "variable_type": "C", "length": "200", "core": "Perm", "role": "Record Qualifier", "format_field": "(OUT)", "key": "", "seq": "38", "origin": "CRF", "dataset_level": "Corporate", "cdisc_notes": "Description of the outcome of an event.", "az_notes": ""}, {"dataset": "AE", "variable": "AESCAN", "label": "Involves Cancer", "variable_type": "C", "length": "1", "core": "Perm", "role": "Record Qualifier", "format_field": "(NY)", "key": "", "seq": "39", "origin": "CRF", "dataset_level": "Corporate", "cdisc_notes": "Was the serious event associated with the development of cancer? Valid values are \"Y\" and \"N\". This is a legacy seriousness criterion. It is not included in ICH E2A or E2B.", "az_notes": ""}, {"dataset": "AE", "variable": "AESCONG", "label": "Congenital Anomaly or Birth Defect", "variable_type": "C", "length": "1", "core": "Perm", "role": "Record Qualifier", "format_field": "(NY)", "key": "", "seq": "40", "origin": "CRF", "dataset_level": "Corporate", "cdisc_notes": "Was the serious event associated with congenital anomaly or birth defect? Valid values are \"Y\" and \"N\".", "az_notes": ""}, {"dataset": "AE", "variable": "AESDISAB", "label": "Persist or Signif Disability/Incapacity", "variable_type": "C", "length": "1", "core": "Perm", "role": "Record Qualifier", "format_field": "(NY)", "key": "", "seq": "41", "origin": "CRF", "dataset_level": "Corporate", "cdisc_notes": "Did the serious event result in persistent or significant disability/incapacity? Valid values are \"Y\" and \"N\".", "az_notes": ""}, {"dataset": "AE", "variable": "AESDTH", "label": "Results in Death", "variable_type": "C", "length": "1", "core": "Perm", "role": "Record Qualifier", "format_field": "(NY)", "key": "", "seq": "42", "origin": "CRF", "dataset_level": "Corporate", "cdisc_notes": "Did the serious event result in death? Valid values are \"Y\" and \"N\".", "az_notes": ""}, {"dataset": "AE", "variable": "AESHOSP", "label": "Requires or Prolongs Hospitalization", "variable_type": "C", "length": "1", "core": "Perm", "role": "Record Qualifier", "format_field": "(NY)", "key": "", "seq": "43", "origin": "CRF", "dataset_level": "Corporate", "cdisc_notes": "Did the serious event require or prolong hospitalization? Valid values are \"Y\" and \"N\".", "az_notes": ""}, {"dataset": "AE", "variable": "AESLIFE", "label": "Is Life Threatening", "variable_type": "C", "length": "1", "core": "Perm", "role": "Record Qualifier", "format_field": "(NY)", "key": "", "seq": "44", "origin": "CRF", "dataset_level": "Corporate", "cdisc_notes": "Was the serious event life-threatening? Valid values are \"Y\" and \"N\".", "az_notes": ""}, {"dataset": "AE", "variable": "AESOD", "label": "Occurred with Overdose", "variable_type": "C", "length": "1", "core": "Perm", "role": "Record Qualifier", "format_field": "(NY)", "key": "", "seq": "45", "origin": "CRF", "dataset_level": "Corporate", "cdisc_notes": "Did the serious event occur with an overdose? Valid values are \"Y\" and \"N\". This is a legacy seriousness criterion. It is not included in ICH E2A or E2B.", "az_notes": ""}, {"dataset": "AE", "variable": "AESMIE", "label": "Other Medically Important Serious Event", "variable_type": "C", "length": "1", "core": "Perm", "role": "Record Qualifier", "format_field": "(NY)", "key": "", "seq": "46", "origin": "CRF", "dataset_level": "Corporate", "cdisc_notes": "Do additional categories for seriousness apply? Valid values are \"Y\" and \"N\".", "az_notes": ""}, {"dataset": "AE", "variable": "AESINTV", "label": "Needs Intervention to Prevent Impairment", "variable_type": "C", "length": "1", "core": "Perm", "role": "Record Qualifier", "format_field": "(NY)", "key": "", "seq": "47", "origin": "", "dataset_level": "Corporate", "cdisc_notes": "Records whether medical or surgical intervention was necessary to preclude permanent impairment of a body function, or to prevent permanent damage to a body structure, with either situation suspected to be due to the use of a medical product. This variable is used in conjunction with the other \"seriousness\" variables (e.g., fatal, life-threatening). It is part of the US federal government definition of a serious adverse event; see 21 CFR Part 803.3(w)(3).", "az_notes": ""}, {"dataset": "AE", "variable": "AEUNANT", "label": "Unanticipated Adverse Device Effect", "variable_type": "C", "length": "1", "core": "Perm", "role": "Record Qualifier", "format_field": "(NY)", "key": "", "seq": "48", "origin": "", "dataset_level": "Corporate", "cdisc_notes": "Any serious adverse effect on health or safety or any life-threatening problem or death caused by or associated with a device, if that effect, problem, or death was not previously identified in nature, severity, or degree of incidence in the investigational plan or application (including a supplementary plan or application), \\n or \\n any other unanticipated serious problem associated with a device that relates to the rights, safety, or welfare of subjects. (21 CFR Part 812.3(s)). \\n This variable applies only to serious AEs and should hold collected data; if the value is derived, it should be held in ADaM.", "az_notes": ""}, {"dataset": "AE", "variable": "AERLPRT", "label": "Rel of AE to Non-Dev-Rel Study Activity", "variable_type": "C", "length": "200", "core": "Perm", "role": "Record Qualifier", "format_field": "", "key": "", "seq": "49", "origin": "", "dataset_level": "Corporate", "cdisc_notes": "The investigator's opinion as to the causality of the event as related to other protocol-required activities, actions, or assessments (e.g., medication changes, tests/assessments, other procedures). The relationship is to a protocol-specified, non-device-related activity where the device is identified in the data (i.e., has an SPDEVID). The device may be ancillary or under study. \\n Terminology: \\n * In the EU, follow the European Commission Guidelines on Medical Devices, Clinical Investigations: SAE Reporting (MEDDEV 2.7/3) (e.g., Not Related, Unlikely, Possible, Probable, Causal Relationship), with device-specific definitions. \\n * No required Controlled Terminology in US.", "az_notes": ""}, {"dataset": "AE", "variable": "AERLPRC", "label": "Rel of AE to Device-Related Procedure", "variable_type": "C", "length": "200", "core": "Perm", "role": "Record Qualifier", "format_field": "", "key": "", "seq": "50", "origin": "", "dataset_level": "Corporate", "cdisc_notes": "The investigator's opinion as to the likelihood that the device-related study procedure (e.g., implant/insertion, revision/adjustment, explant/removal) caused the AE. The relationship is to a device-related procedure where the device is identified in the data (i.e., has an SPDEVID). The device may be ancillary or under study. \\n Terminology: \\n * In the EU, follow the European Commission Guidelines on Medical Devices, Clinical Investigations: SAE Reporting (MEDDEV 2.7/3) (e.g., Not Related, Unlikely, Possible, Probable, Causal Relationship), with device-specific definitions. \\n * No required Controlled Terminology in US.", "az_notes": ""}, {"dataset": "AE", "variable": "AECONTRT", "label": "Concomitant or Additional Trtmnt Given", "variable_type": "C", "length": "1", "core": "Perm", "role": "Record Qualifier", "format_field": "(NY)", "key": "", "seq": "51", "origin": "CRF", "dataset_level": "Corporate", "cdisc_notes": "Was another treatment given because of the occurrence of the event? Valid values are \"Y\" and \"N\".", "az_notes": ""}, {"dataset": "AE", "variable": "AETOXGR", "label": "Standard Toxicity Grade", "variable_type": "C", "length": "1", "core": "Perm", "role": "Record Qualifier", "format_field": "", "key": "", "seq": "52", "origin": "CRF", "dataset_level": "Corporate", "cdisc_notes": "Toxicity grade according to a standard toxicity scale (e.g., Common Terminology Criteria for Adverse Events, CTCAE). Sponsors should specify the name of the scale and version used in the metadata (see assumption 7d). If value is from a numeric scale, represent only the number (e.g., \"2\", not \"Grade 2\").", "az_notes": ""}, {"dataset": "AE", "variable": "TAETORD", "label": "Planned Order of Element within Arm", "variable_type": "N", "length": "8", "core": "Perm", "role": "Timing", "format_field": "", "key": "", "seq": "53", "origin": "Protocol", "dataset_level": "Corporate", "cdisc_notes": "Number that gives the planned order of the element within the arm.", "az_notes": ""}, {"dataset": "AE", "variable": "EPOCH", "label": "Epoch", "variable_type": "C", "length": "40", "core": "Perm", "role": "Timing", "format_field": "(EPOCH)", "key": "", "seq": "54", "origin": "Protocol", "dataset_level": "Corporate", "cdisc_notes": "Epoch associated with the start date/time of the adverse event. Examples: \"SCREENING\", \"TREATMENT\", \"FOLLOW-UP\".", "az_notes": ""}, {"dataset": "AE", "variable": "AESTDTC", "label": "Start Date/Time of Adverse Event", "variable_type": "C", "length": "19", "core": "Exp", "role": "Timing", "format_field": "ISO 8601", "key": "3", "seq": "55", "origin": "CRF", "dataset_level": "Corporate", "cdisc_notes": "Start date/time of the adverse event represented in ISO 8601 character format.", "az_notes": ""}, {"dataset": "AE", "variable": "AEENDTC", "label": "End Date/Time of Adverse Event", "variable_type": "C", "length": "19", "core": "Exp", "role": "Timing", "format_field": "ISO 8601", "key": "", "seq": "56", "origin": "CRF", "dataset_level": "Corporate", "cdisc_notes": "End date/time of the adverse event represented in ISO 8601 character format.", "az_notes": ""}, {"dataset": "AE", "variable": "AESTDY", "label": "Study Day of Start of Adverse Event", "variable_type": "N", "length": "8", "core": "Perm", "role": "Timing", "format_field": "", "key": "", "seq": "57", "origin": "Derived", "dataset_level": "Corporate", "cdisc_notes": "Study day of start of adverse event relative to the sponsor-defined RFSTDTC.", "az_notes": ""}, {"dataset": "AE", "variable": "AEENDY", "label": "Study Day of End of Adverse Event", "variable_type": "N", "length": "8", "core": "Perm", "role": "Timing", "format_field": "", "key": "", "seq": "58", "origin": "Derived", "dataset_level": "Corporate", "cdisc_notes": "Study day of end of event relative to the sponsor-defined RFSTDTC.", "az_notes": ""}, {"dataset": "AE", "variable": "AEDUR", "label": "Duration of Adverse Event", "variable_type": "C", "length": "40", "core": "Perm", "role": "Timing", "format_field": "ISO 8601", "key": "", "seq": "59", "origin": "CRF", "dataset_level": "Corporate", "cdisc_notes": "Collected duration and unit of an adverse event. Used only if collected on the CRF and not derived from start and end date/times. Example: \"P1DT2H\" (for 1 day, 2 hours).", "az_notes": ""}, {"dataset": "AE", "variable": "AESTRF", "label": "Start Relative to Reference Period", "variable_type": "C", "length": "40", "core": "Perm", "role": "Timing", "format_field": "(STENRF)", "key": "", "seq": "60", "origin": "Assigned", "dataset_level": "Corporate", "cdisc_notes": "Identifies the start of the observation as being before, during, or after the sponsor-defined reference period. The sponsor-defined reference period is a continuous period of time defined by a discrete starting point and a discrete ending point represented by RFSTDTC and RFENDTC in Demographics.", "az_notes": ""}, {"dataset": "AE", "variable": "AEENRF", "label": "End Relative to Reference Period", "variable_type": "C", "length": "40", "core": "Perm", "role": "Timing", "format_field": "(STENRF)", "key": "", "seq": "61", "origin": "Assigned", "dataset_level": "Corporate", "cdisc_notes": "Describes the end of the event relative to the sponsor-defined reference period. The sponsor-defined reference period is a continuous period of time defined by a discrete starting point (RFSTDTC) and a discrete ending point (RFENDTC) of the trial. \\n Not all values of the codelist are allowable for this variable. See Section 4.4.7, Use of Relative Timing Variables.", "az_notes": ""}, {"dataset": "AE", "variable": "AEENRTPT", "label": "End Relative to Reference Time Point", "variable_type": "C", "length": "40", "core": "Perm", "role": "Timing", "format_field": "(STENRF)", "key": "", "seq": "62", "origin": "Derived", "dataset_level": "Corporate", "cdisc_notes": "Identifies the end of the event as being before or after the reference time point defined by variable AEENTPT. \\n Not all values of the codelist are allowable for this variable. See Section 4.4.7, Use of Relative Timing Variables.", "az_notes": ""}, {"dataset": "AE", "variable": "AEENTPT", "label": "End Reference Time Point", "variable_type": "C", "length": "40", "core": "Perm", "role": "Timing", "format_field": "", "key": "", "seq": "63", "origin": "Derived", "dataset_level": "Corporate", "cdisc_notes": "Description of date/time in ISO 8601 character format of the reference point referred to by AEENRTPT. Examples: \"2003-12-25\", \"VISIT 2\".", "az_notes": ""}, {"dataset": "AE", "variable": "AD", "label": "Additional Drug", "variable_type": "C", "length": "200", "core": "Supp", "role": "", "format_field": "", "key": "", "seq": "64", "origin": "CRF", "dataset_level": "Corporate", "cdisc_notes": "", "az_notes": ""}, {"dataset": "AE", "variable": "AD1", "label": "Additional Drug 1", "variable_type": "C", "length": "200", "core": "Supp", "role": "", "format_field": "", "key": "", "seq": "65", "origin": "CRF", "dataset_level": "Corporate", "cdisc_notes": "", "az_notes": ""}, {"dataset": "AE", "variable": "AEACN1", "label": "Action Taken, Investigational Product 1", "variable_type": "C", "length": "200", "core": "Supp", "role": "", "format_field": "(ACN)", "key": "", "seq": "66", "origin": "CRF", "dataset_level": "Corporate", "cdisc_notes": "", "az_notes": ""}, {"dataset": "AE", "variable": "AEACNAD", "label": "Action Taken, Additional Drug", "variable_type": "C", "length": "200", "core": "Supp", "role": "", "format_field": "(ACN)", "key": "", "seq": "67", "origin": "CRF", "dataset_level": "Corporate", "cdisc_notes": "", "az_notes": ""}, {"dataset": "AE", "variable": "AEACNAD1", "label": "Action Taken, Additional Drug 1", "variable_type": "C", "length": "200", "core": "Supp", "role": "", "format_field": "(ACN)", "key": "", "seq": "68", "origin": "CRF", "dataset_level": "Corporate", "cdisc_notes": "", "az_notes": ""}, {"dataset": "AE", "variable": "AECAAD", "label": "Causality to Additional Drug", "variable_type": "C", "length": "200", "core": "Supp", "role": "", "format_field": "(AECAAD)", "key": "", "seq": "69", "origin": "CRF", "dataset_level": "Corporate", "cdisc_notes": "", "az_notes": ""}, {"dataset": "AE", "variable": "AECAAD1", "label": "Causality to Additional Drug 1", "variable_type": "C", "length": "200", "core": "Supp", "role": "", "format_field": "(AECAAD1)", "key": "", "seq": "70", "origin": "CRF", "dataset_level": "Corporate", "cdisc_notes": "", "az_notes": ""}, {"dataset": "AE", "variable": "AEDESC", "label": "AE Description", "variable_type": "C", "length": "200", "core": "Supp", "role": "", "format_field": "", "key": "", "seq": "71", "origin": "CRF", "dataset_level": "Corporate", "cdisc_notes": "", "az_notes": ""}, {"dataset": "AE", "variable": "AEDESC1", "label": "AE Description", "variable_type": "C", "length": "200", "core": "Supp", "role": "", "format_field": "", "key": "", "seq": "72", "origin": "CRF", "dataset_level": "Corporate", "cdisc_notes": "", "az_notes": ""}, {"dataset": "AE", "variable": "AEDESC2", "label": "AE Description", "variable_type": "C", "length": "200", "core": "Supp", "role": "", "format_field": "", "key": "", "seq": "73", "origin": "CRF", "dataset_level": "Corporate", "cdisc_notes": "", "az_notes": ""}, {"dataset": "AE", "variable": "AEDESC3", "label": "AE Description", "variable_type": "C", "length": "200", "core": "Supp", "role": "", "format_field": "", "key": "", "seq": "74", "origin": "CRF", "dataset_level": "Corporate", "cdisc_notes": "", "az_notes": ""}, {"dataset": "AE", "variable": "AEDESC4", "label": "AE Description", "variable_type": "C", "length": "200", "core": "Supp", "role": "", "format_field": "", "key": "", "seq": "75", "origin": "CRF", "dataset_level": "Corporate", "cdisc_notes": "", "az_notes": ""}, {"dataset": "AE", "variable": "AEDESC5", "label": "AE Description", "variable_type": "C", "length": "200", "core": "Supp", "role": "", "format_field": "", "key": "", "seq": "76", "origin": "CRF", "dataset_level": "Corporate", "cdisc_notes": "", "az_notes": ""}, {"dataset": "AE", "variable": "AEDESC6", "label": "AE Description", "variable_type": "C", "length": "200", "core": "Supp", "role": "", "format_field": "", "key": "", "seq": "77", "origin": "CRF", "dataset_level": "Corporate", "cdisc_notes": "", "az_notes": ""}, {"dataset": "AE", "variable": "AEDESC7", "label": "AE Description", "variable_type": "C", "length": "200", "core": "Supp", "role": "", "format_field": "", "key": "", "seq": "78", "origin": "CRF", "dataset_level": "Corporate", "cdisc_notes": "", "az_notes": ""}, {"dataset": "AE", "variable": "AEDESC8", "label": "AE Description", "variable_type": "C", "length": "200", "core": "Supp", "role": "", "format_field": "", "key": "", "seq": "79", "origin": "CRF", "dataset_level": "Corporate", "cdisc_notes": "", "az_notes": ""}, {"dataset": "AE", "variable": "AEDESC9", "label": "AE Description", "variable_type": "C", "length": "200", "core": "Supp", "role": "", "format_field": "", "key": "", "seq": "80", "origin": "CRF", "dataset_level": "Corporate", "cdisc_notes": "", "az_notes": ""}, {"dataset": "AE", "variable": "AEDLT", "label": "Dose Limiting Toxicity", "variable_type": "C", "length": "2", "core": "Supp", "role": "", "format_field": "", "key": "", "seq": "81", "origin": "CRF", "dataset_level": "Corporate", "cdisc_notes": "", "az_notes": ""}, {"dataset": "AE", "variable": "AEDREL", "label": "Reasonable Possibility AE Caus by Device", "variable_type": "C", "length": "2", "core": "Supp", "role": "", "format_field": "", "key": "", "seq": "82", "origin": "CRF", "dataset_level": "Corporate", "cdisc_notes": "", "az_notes": ""}, {"dataset": "AE", "variable": "AEDSRESL", "label": "AE Related to Disease Under Study", "variable_type": "C", "length": "2", "core": "Supp", "role": "", "format_field": "(NY)", "key": "", "seq": "83", "origin": "CRF", "dataset_level": "Corporate", "cdisc_notes": "", "az_notes": ""}, {"dataset": "AE", "variable": "AEEVADJ", "label": "Event to be Adjudicated", "variable_type": "C", "length": "1", "core": "Supp", "role": "", "format_field": "(NY)", "key": "", "seq": "84", "origin": "CRF", "dataset_level": "Corporate", "cdisc_notes": "", "az_notes": ""}, {"dataset": "AE", "variable": "AEITOXGR", "label": "Maximum IWCLL Grade", "variable_type": "C", "length": "2", "core": "Supp", "role": "", "format_field": "", "key": "", "seq": "85", "origin": "CRF", "dataset_level": "Corporate", "cdisc_notes": "", "az_notes": ""}, {"dataset": "AE", "variable": "AEMAAE", "label": "AE Medically Attended", "variable_type": "C", "length": "2", "core": "Supp", "role": "", "format_field": "(NY)", "key": "", "seq": "86", "origin": "CRF", "dataset_level": "Corporate", "cdisc_notes": "", "az_notes": ""}, {"dataset": "AE", "variable": "AEONSDIP", "label": "AE Onset Status on Day of IP Admin", "variable_type": "C", "length": "40", "core": "Supp", "role": "", "format_field": "", "key": "", "seq": "87", "origin": "CRF", "dataset_level": "Corporate", "cdisc_notes": "", "az_notes": ""}, {"dataset": "AE", "variable": "AEPROSSP", "label": "Provoked by Specific Study Procedure", "variable_type": "C", "length": "1", "core": "Supp", "role": "", "format_field": "(NY)", "key": "", "seq": "88", "origin": "CRF", "dataset_level": "Corporate", "cdisc_notes": "", "az_notes": ""}, {"dataset": "AE", "variable": "AEPRR", "label": "AE Required Procedure", "variable_type": "C", "length": "2", "core": "Supp", "role": "", "format_field": "", "key": "", "seq": "89", "origin": "CRF", "dataset_level": "Corporate", "cdisc_notes": "", "az_notes": ""}, {"dataset": "AE", "variable": "AEREL1", "label": "Causality to IP 1", "variable_type": "C", "length": "200", "core": "Supp", "role": "", "format_field": "(AEREL1)", "key": "", "seq": "90", "origin": "CRF", "dataset_level": "Corporate", "cdisc_notes": "", "az_notes": ""}, {"dataset": "AE", "variable": "AESIDC01", "label": "AESI Description 01", "variable_type": "C", "length": "200", "core": "Supp", "role": "", "format_field": "", "key": "", "seq": "91", "origin": "CRF", "dataset_level": "Corporate", "cdisc_notes": "", "az_notes": ""}, {"dataset": "AE", "variable": "AESIDC02", "label": "AESI Description 02", "variable_type": "C", "length": "200", "core": "Supp", "role": "", "format_field": "", "key": "", "seq": "92", "origin": "CRF", "dataset_level": "Corporate", "cdisc_notes": "", "az_notes": ""}, {"dataset": "AE", "variable": "AESIDC03", "label": "AESI Description 03", "variable_type": "C", "length": "200", "core": "Supp", "role": "", "format_field": "", "key": "", "seq": "93", "origin": "CRF", "dataset_level": "Corporate", "cdisc_notes": "", "az_notes": ""}, {"dataset": "AE", "variable": "AESIDC04", "label": "AESI Description 04", "variable_type": "C", "length": "200", "core": "Supp", "role": "", "format_field": "", "key": "", "seq": "94", "origin": "CRF", "dataset_level": "Corporate", "cdisc_notes": "", "az_notes": ""}, {"dataset": "AE", "variable": "AESIDC05", "label": "AESI Description 05", "variable_type": "C", "length": "200", "core": "Supp", "role": "", "format_field": "", "key": "", "seq": "95", "origin": "CRF", "dataset_level": "Corporate", "cdisc_notes": "", "az_notes": ""}, {"dataset": "AE", "variable": "AESIDC06", "label": "AESI Description 06", "variable_type": "C", "length": "200", "core": "Supp", "role": "", "format_field": "", "key": "", "seq": "96", "origin": "CRF", "dataset_level": "Corporate", "cdisc_notes": "", "az_notes": ""}, {"dataset": "AE", "variable": "AESIDC07", "label": "AESI Description 07", "variable_type": "C", "length": "200", "core": "Supp", "role": "", "format_field": "", "key": "", "seq": "97", "origin": "CRF", "dataset_level": "Corporate", "cdisc_notes": "", "az_notes": ""}, {"dataset": "AE", "variable": "AESIDC08", "label": "AESI Description 08", "variable_type": "C", "length": "200", "core": "Supp", "role": "", "format_field": "", "key": "", "seq": "98", "origin": "CRF", "dataset_level": "Corporate", "cdisc_notes": "", "az_notes": ""}, {"dataset": "AE", "variable": "AESIDC09", "label": "AESI Description 09", "variable_type": "C", "length": "200", "core": "Supp", "role": "", "format_field": "", "key": "", "seq": "99", "origin": "CRF", "dataset_level": "Corporate", "cdisc_notes": "", "az_notes": ""}, {"dataset": "AE", "variable": "AESIDC10", "label": "AESI Description 10", "variable_type": "C", "length": "200", "core": "Supp", "role": "", "format_field": "", "key": "", "seq": "100", "origin": "CRF", "dataset_level": "Corporate", "cdisc_notes": "", "az_notes": ""}, {"dataset": "AE", "variable": "AETRTEM", "label": "Treatment Emergent Flag", "variable_type": "C", "length": "2", "core": "Supp", "role": "", "format_field": "(NY)", "key": "", "seq": "101", "origin": "CRF", "dataset_level": "Corporate", "cdisc_notes": "", "az_notes": ""}, {"dataset": "AE", "variable": "AEWD", "label": "AE Caused Subject to Withdraw from Study", "variable_type": "C", "length": "1", "core": "Supp", "role": "", "format_field": "(NY)", "key": "", "seq": "102", "origin": "CRF", "dataset_level": "Corporate", "cdisc_notes": "", "az_notes": ""}, {"dataset": "AE", "variable": "CTC", "label": "CTC Version", "variable_type": "C", "length": "20", "core": "Supp", "role": "", "format_field": "", "key": "", "seq": "103", "origin": "CRF", "dataset_level": "Corporate", "cdisc_notes": "", "az_notes": ""}, {"dataset": "AE", "variable": "DENO", "label": "Device Event Number", "variable_type": "C", "length": "8", "core": "Supp", "role": "", "format_field": "", "key": "", "seq": "104", "origin": "CRF", "dataset_level": "Corporate", "cdisc_notes": "", "az_notes": ""}, {"dataset": "AE", "variable": "IP", "label": "Investigational Product", "variable_type": "C", "length": "200", "core": "Supp", "role": "", "format_field": "", "key": "", "seq": "105", "origin": "CRF", "dataset_level": "Corporate", "cdisc_notes": "", "az_notes": ""}, {"dataset": "AE", "variable": "IP1", "label": "Investigational Product 1", "variable_type": "C", "length": "200", "core": "Supp", "role": "", "format_field": "", "key": "", "seq": "106", "origin": "CRF", "dataset_level": "Corporate", "cdisc_notes": "", "az_notes": ""}, {"dataset": "AE", "variable": "MEDDRAV", "label": "MedDRA Version", "variable_type": "C", "length": "20", "core": "Supp", "role": "", "format_field": "", "key": "", "seq": "107", "origin": "Assigned", "dataset_level": "Corporate", "cdisc_notes": "", "az_notes": ""}, {"dataset": "AE", "variable": "MODULE", "label": "Source Module Short Name", "variable_type": "C", "length": "40", "core": "Supp", "role": "", "format_field": "(MODULE)", "key": "", "seq": "108", "origin": "CRF", "dataset_level": "Corporate", "cdisc_notes": "", "az_notes": ""}, {"dataset": "AE", "variable": "SAECAA", "label": "SAE Caused by Additional Drug", "variable_type": "C", "length": "1", "core": "Supp", "role": "", "format_field": "(NY)", "key": "", "seq": "109", "origin": "CRF", "dataset_level": "Corporate", "cdisc_notes": "", "az_notes": ""}, {"dataset": "AE", "variable": "SAECAA1", "label": "SAE Caused by Additional Drug 1", "variable_type": "C", "length": "1", "core": "Supp", "role": "", "format_field": "(NY)", "key": "", "seq": "110", "origin": "CRF", "dataset_level": "Corporate", "cdisc_notes": "", "az_notes": ""}, {"dataset": "AE", "variable": "SAECAU1", "label": "SAE Caused by Investigational Product 1", "variable_type": "C", "length": "1", "core": "Supp", "role": "", "format_field": "(NY)", "key": "", "seq": "111", "origin": "CRF", "dataset_level": "Corporate", "cdisc_notes": "", "az_notes": ""}, {"dataset": "AE", "variable": "SAECAUSP", "label": "SAE Caused by Study Procedure(s)", "variable_type": "C", "length": "1", "core": "Supp", "role": "", "format_field": "(NY)", "key": "", "seq": "112", "origin": "CRF", "dataset_level": "Corporate", "cdisc_notes": "", "az_notes": ""}, {"dataset": "AE", "variable": "SAEDDTC", "label": "Date/Time of Death", "variable_type": "C", "length": "19", "core": "Supp", "role": "", "format_field": "ISO 8601", "key": "", "seq": "113", "origin": "CRF", "dataset_level": "Corporate", "cdisc_notes": "", "az_notes": ""}, {"dataset": "AE", "variable": "SAEDIA01", "label": "Diagnostic Investigations 01", "variable_type": "C", "length": "200", "core": "Supp", "role": "", "format_field": "", "key": "", "seq": "114", "origin": "CRF", "dataset_level": "Corporate", "cdisc_notes": "", "az_notes": ""}, {"dataset": "AE", "variable": "SAEDIA02", "label": "Diagnostic Investigations 02", "variable_type": "C", "length": "200", "core": "Supp", "role": "", "format_field": "", "key": "", "seq": "115", "origin": "CRF", "dataset_level": "Corporate", "cdisc_notes": "", "az_notes": ""}, {"dataset": "AE", "variable": "SAEDIA03", "label": "Diagnostic Investigations 03", "variable_type": "C", "length": "200", "core": "Supp", "role": "", "format_field": "", "key": "", "seq": "116", "origin": "CRF", "dataset_level": "Corporate", "cdisc_notes": "", "az_notes": ""}, {"dataset": "AE", "variable": "SAEDIA04", "label": "Diagnostic Investigations 04", "variable_type": "C", "length": "200", "core": "Supp", "role": "", "format_field": "", "key": "", "seq": "117", "origin": "CRF", "dataset_level": "Corporate", "cdisc_notes": "", "az_notes": ""}, {"dataset": "AE", "variable": "SAEDIA05", "label": "Diagnostic Investigations 05", "variable_type": "C", "length": "200", "core": "Supp", "role": "", "format_field": "", "key": "", "seq": "118", "origin": "CRF", "dataset_level": "Corporate", "cdisc_notes": "", "az_notes": ""}, {"dataset": "AE", "variable": "SAEDIA06", "label": "Diagnostic Investigations 06", "variable_type": "C", "length": "200", "core": "Supp", "role": "", "format_field": "", "key": "", "seq": "119", "origin": "CRF", "dataset_level": "Corporate", "cdisc_notes": "", "az_notes": ""}, {"dataset": "AE", "variable": "SAEDIA07", "label": "Diagnostic Investigations 07", "variable_type": "C", "length": "200", "core": "Supp", "role": "", "format_field": "", "key": "", "seq": "120", "origin": "CRF", "dataset_level": "Corporate", "cdisc_notes": "", "az_notes": ""}, {"dataset": "AE", "variable": "SAEDIA08", "label": "Diagnostic Investigations 08", "variable_type": "C", "length": "200", "core": "Supp", "role": "", "format_field": "", "key": "", "seq": "121", "origin": "CRF", "dataset_level": "Corporate", "cdisc_notes": "", "az_notes": ""}, {"dataset": "AE", "variable": "SAEDIA09", "label": "Diagnostic Investigations 09", "variable_type": "C", "length": "200", "core": "Supp", "role": "", "format_field": "", "key": "", "seq": "122", "origin": "CRF", "dataset_level": "Corporate", "cdisc_notes": "", "az_notes": ""}, {"dataset": "AE", "variable": "SAEDIA10", "label": "Diagnostic Investigations 10", "variable_type": "C", "length": "200", "core": "Supp", "role": "", "format_field": "", "key": "", "seq": "123", "origin": "CRF", "dataset_level": "Corporate", "cdisc_notes": "", "az_notes": ""}, {"dataset": "AE", "variable": "SAEDIDTC", "label": "Date of Discharge", "variable_type": "C", "length": "19", "core": "Supp", "role": "", "format_field": "ISO 8601", "key": "", "seq": "124", "origin": "CRF", "dataset_level": "Corporate", "cdisc_notes": "", "az_notes": ""}, {"dataset": "AE", "variable": "SAEDTC", "label": "Date/Time AE Met Criteria for Serious AE", "variable_type": "C", "length": "19", "core": "Supp", "role": "", "format_field": "ISO 8601", "key": "", "seq": "125", "origin": "CRF", "dataset_level": "Corporate", "cdisc_notes": "", "az_notes": ""}, {"dataset": "AE", "variable": "SAEHODTC", "label": "Date of Hospitalization", "variable_type": "C", "length": "19", "core": "Supp", "role": "", "format_field": "ISO 8601", "key": "", "seq": "126", "origin": "CRF", "dataset_level": "Corporate", "cdisc_notes": "", "az_notes": ""}, {"dataset": "AE", "variable": "SAEIADTC", "label": "Date Investigator Aware of Serious AE", "variable_type": "C", "length": "19", "core": "Supp", "role": "", "format_field": "ISO 8601", "key": "", "seq": "127", "origin": "CRF", "dataset_level": "Corporate", "cdisc_notes": "", "az_notes": ""}, {"dataset": "AE", "variable": "SAESP", "label": "Study Procedure(s)", "variable_type": "C", "length": "200", "core": "Supp", "role": "", "format_field": "", "key": "", "seq": "128", "origin": "CRF", "dataset_level": "Corporate", "cdisc_notes": "", "az_notes": ""}, {"dataset": "AE", "variable": "SAESYM01", "label": "SAE Symptoms 01", "variable_type": "C", "length": "200", "core": "Supp", "role": "", "format_field": "", "key": "", "seq": "129", "origin": "CRF", "dataset_level": "Corporate", "cdisc_notes": "", "az_notes": ""}, {"dataset": "AE", "variable": "SAESYM02", "label": "SAE Symptoms 02", "variable_type": "C", "length": "200", "core": "Supp", "role": "", "format_field": "", "key": "", "seq": "130", "origin": "CRF", "dataset_level": "Corporate", "cdisc_notes": "", "az_notes": ""}, {"dataset": "AE", "variable": "SAESYM03", "label": "SAE Symptoms 03", "variable_type": "C", "length": "200", "core": "Supp", "role": "", "format_field": "", "key": "", "seq": "131", "origin": "CRF", "dataset_level": "Corporate", "cdisc_notes": "", "az_notes": ""}, {"dataset": "AE", "variable": "SAESYM04", "label": "SAE Symptoms 04", "variable_type": "C", "length": "200", "core": "Supp", "role": "", "format_field": "", "key": "", "seq": "132", "origin": "CRF", "dataset_level": "Corporate", "cdisc_notes": "", "az_notes": ""}, {"dataset": "AE", "variable": "SAESYM05", "label": "SAE Symptoms 05", "variable_type": "C", "length": "200", "core": "Supp", "role": "", "format_field": "", "key": "", "seq": "133", "origin": "CRF", "dataset_level": "Corporate", "cdisc_notes": "", "az_notes": ""}, {"dataset": "AE", "variable": "SAESYM06", "label": "SAE Symptoms 06", "variable_type": "C", "length": "200", "core": "Supp", "role": "", "format_field": "", "key": "", "seq": "134", "origin": "CRF", "dataset_level": "Corporate", "cdisc_notes": "", "az_notes": ""}, {"dataset": "AE", "variable": "SAESYM07", "label": "SAE Symptoms 07", "variable_type": "C", "length": "200", "core": "Supp", "role": "", "format_field": "", "key": "", "seq": "135", "origin": "CRF", "dataset_level": "Corporate", "cdisc_notes": "", "az_notes": ""}, {"dataset": "AE", "variable": "SAESYM08", "label": "SAE Symptoms 08", "variable_type": "C", "length": "200", "core": "Supp", "role": "", "format_field": "", "key": "", "seq": "136", "origin": "CRF", "dataset_level": "Corporate", "cdisc_notes": "", "az_notes": ""}, {"dataset": "AE", "variable": "SAESYM09", "label": "SAE Symptoms 09", "variable_type": "C", "length": "200", "core": "Supp", "role": "", "format_field": "", "key": "", "seq": "137", "origin": "CRF", "dataset_level": "Corporate", "cdisc_notes": "", "az_notes": ""}, {"dataset": "AE", "variable": "SAESYM10", "label": "SAE Symptoms 10", "variable_type": "C", "length": "200", "core": "Supp", "role": "", "format_field": "", "key": "", "seq": "138", "origin": "CRF", "dataset_level": "Corporate", "cdisc_notes": "", "az_notes": ""}, {"dataset": "AE", "variable": "SAETRT01", "label": "Treatments of SAE 01", "variable_type": "C", "length": "200", "core": "Supp", "role": "", "format_field": "", "key": "", "seq": "139", "origin": "CRF", "dataset_level": "Corporate", "cdisc_notes": "", "az_notes": ""}, {"dataset": "AE", "variable": "SAETRT02", "label": "Treatments of SAE 02", "variable_type": "C", "length": "200", "core": "Supp", "role": "", "format_field": "", "key": "", "seq": "140", "origin": "CRF", "dataset_level": "Corporate", "cdisc_notes": "", "az_notes": ""}, {"dataset": "AE", "variable": "SAETRT03", "label": "Treatments of SAE 03", "variable_type": "C", "length": "200", "core": "Supp", "role": "", "format_field": "", "key": "", "seq": "141", "origin": "CRF", "dataset_level": "Corporate", "cdisc_notes": "", "az_notes": ""}, {"dataset": "AE", "variable": "SAETRT04", "label": "Treatments of SAE 04", "variable_type": "C", "length": "200", "core": "Supp", "role": "", "format_field": "", "key": "", "seq": "142", "origin": "CRF", "dataset_level": "Corporate", "cdisc_notes": "", "az_notes": ""}, {"dataset": "AE", "variable": "SAETRT05", "label": "Treatments of SAE 05", "variable_type": "C", "length": "200", "core": "Supp", "role": "", "format_field": "", "key": "", "seq": "143", "origin": "CRF", "dataset_level": "Corporate", "cdisc_notes": "", "az_notes": ""}, {"dataset": "AE", "variable": "SAETRT06", "label": "Treatments of SAE 06", "variable_type": "C", "length": "200", "core": "Supp", "role": "", "format_field": "", "key": "", "seq": "144", "origin": "CRF", "dataset_level": "Corporate", "cdisc_notes": "", "az_notes": ""}, {"dataset": "AE", "variable": "SAETRT07", "label": "Treatments of SAE 07", "variable_type": "C", "length": "200", "core": "Supp", "role": "", "format_field": "", "key": "", "seq": "145", "origin": "CRF", "dataset_level": "Corporate", "cdisc_notes": "", "az_notes": ""}, {"dataset": "AE", "variable": "SAETRT08", "label": "Treatments of SAE 08", "variable_type": "C", "length": "200", "core": "Supp", "role": "", "format_field": "", "key": "", "seq": "146", "origin": "CRF", "dataset_level": "Corporate", "cdisc_notes": "", "az_notes": ""}, {"dataset": "AE", "variable": "SAETRT09", "label": "Treatments of SAE 09", "variable_type": "C", "length": "200", "core": "Supp", "role": "", "format_field": "", "key": "", "seq": "147", "origin": "CRF", "dataset_level": "Corporate", "cdisc_notes": "", "az_notes": ""}, {"dataset": "AE", "variable": "SAETRT10", "label": "Treatments of SAE 10", "variable_type": "C", "length": "200", "core": "Supp", "role": "", "format_field": "", "key": "", "seq": "148", "origin": "CRF", "dataset_level": "Corporate", "cdisc_notes": "", "az_notes": ""}, {"dataset": "AG", "variable": "STUDYID", "label": "Study Identifier", "variable_type": "C", "length": "21", "core": "Req", "role": "Identifier", "format_field": "", "key": "1", "seq": "1", "origin": "Protocol", "dataset_level": "Respiratory and Immunology", "cdisc_notes": "Unique identifier for a study.", "az_notes": ""}, {"dataset": "AG", "variable": "DOMAIN", "label": "Domain Abbreviation", "variable_type": "C", "length": "8", "core": "Req", "role": "Identifier", "format_field": "(DOMAIN)", "key": "", "seq": "2", "origin": "Assigned", "dataset_level": "Respiratory and Immunology", "cdisc_notes": "Two-character abbreviation for the domain.", "az_notes": ""}, {"dataset": "AG", "variable": "USUBJID", "label": "Unique Subject Identifier", "variable_type": "C", "length": "30", "core": "Req", "role": "Identifier", "format_field": "", "key": "2", "seq": "3", "origin": "Derived", "dataset_level": "Respiratory and Immunology", "cdisc_notes": "Identifier used to uniquely identify a subject across all studies for all applications or submissions involving the product.", "az_notes": ""}, {"dataset": "AG", "variable": "AGSEQ", "label": "Sequence Number", "variable_type": "N", "length": "8", "core": "Req", "role": "Identifier", "format_field": "", "key": "", "seq": "4", "origin": "Derived", "dataset_level": "Respiratory and Immunology", "cdisc_notes": "Sequence number given to ensure uniqueness of subject records within a domain. May be any valid number.", "az_notes": ""}, {"dataset": "AG", "variable": "AGGRPID", "label": "Group ID", "variable_type": "C", "length": "40", "core": "Perm", "role": "Identifier", "format_field": "", "key": "", "seq": "5", "origin": "Derived", "dataset_level": "Respiratory and Immunology", "cdisc_notes": "Used to tie together a block of related records in a single domain for a subject.", "az_notes": ""}, {"dataset": "AG", "variable": "AGREFID", "label": "Reference ID", "variable_type": "C", "length": "40", "core": "Perm", "role": "Identifier", "format_field": "", "key": "", "seq": "6", "origin": "", "dataset_level": "Respiratory and Immunology", "cdisc_notes": "Optional internal or external identifier such as lab specimen ID, or UUID for an ECG waveform or a medical image.", "az_notes": ""}, {"dataset": "AG", "variable": "AGSPID", "label": "Sponsor-Defined Identifier", "variable_type": "C", "length": "40", "core": "Perm", "role": "Identifier", "format_field": "", "key": "", "seq": "7", "origin": "Derived", "dataset_level": "Respiratory and Immunology", "cdisc_notes": "Sponsor-defined reference number. May be preprinted on the CRF as an explicit line identifier or defined in the sponsor's operational database. Example: Line number from the procedure or test page.", "az_notes": ""}, {"dataset": "AG", "variable": "AGLNKID", "label": "Link ID", "variable_type": "C", "length": "40", "core": "Perm", "role": "Identifier", "format_field": "", "key": "", "seq": "8", "origin": "Derived", "dataset_level": "Respiratory and Immunology", "cdisc_notes": "Identifier used to link related records across domains.This may be a one-to-one or a one-to-many relationship.", "az_notes": ""}, {"dataset": "AG", "variable": "AGLNKGRP", "label": "Link Group ID", "variable_type": "C", "length": "40", "core": "Perm", "role": "Identifier", "format_field": "", "key": "", "seq": "9", "origin": "Assigned", "dataset_level": "Respiratory and Immunology", "cdisc_notes": "Identifier used to link related records across domains.This will usually be a many-to-one relationship.", "az_notes": ""}, {"dataset": "AG", "variable": "AGTRT", "label": "Reported Agent Name", "variable_type": "C", "length": "200", "core": "Req", "role": "Topic", "format_field": "", "key": "5", "seq": "10", "origin": "Protocol", "dataset_level": "Respiratory and Immunology", "cdisc_notes": "Verbatim medication name that is either preprinted or collected on a CRF.", "az_notes": ""}, {"dataset": "AG", "variable": "AGMODIFY", "label": "Modified Reported Name", "variable_type": "C", "length": "200", "core": "Perm", "role": "Synonym Qualifier", "format_field": "", "key": "", "seq": "11", "origin": "Assigned", "dataset_level": "Respiratory and Immunology", "cdisc_notes": "If AGTRT is modified to facilitate coding, then AGMODIFY will contain the modified text.", "az_notes": ""}, {"dataset": "AG", "variable": "AGDECOD", "label": "Standardized Agent Name", "variable_type": "C", "length": "200", "core": "Perm", "role": "Synonym Qualifier", "format_field": "", "key": "", "seq": "12", "origin": "Assigned", "dataset_level": "Respiratory and Immunology", "cdisc_notes": "Standardized or dictionary-derived text description of AGTRT or AGMODIFY. Equivalent to the generic medication name in WHO Drug. The sponsor is expected to provide the dictionary name and version used to map the terms utilizing the external codelist element in the Define-XML document. If an intervention term does not have a decode value in the dictionary, then AGDECOD will be left blank.", "az_notes": ""}, {"dataset": "AG", "variable": "AGCAT", "label": "Category for Agent", "variable_type": "C", "length": "40", "core": "Perm", "role": "Grouping Qualifier", "format_field": "", "key": "4", "seq": "13", "origin": "Assigned", "dataset_level": "Respiratory and Immunology", "cdisc_notes": "Used to define a category of agent. Examples: \"CHALLENGE AGENT\", \"PET TRACER\".", "az_notes": ""}, {"dataset": "AG", "variable": "AGSCAT", "label": "Subcategory for Agent", "variable_type": "C", "length": "40", "core": "Perm", "role": "Grouping Qualifier", "format_field": "", "key": "", "seq": "14", "origin": "Assigned", "dataset_level": "Respiratory and Immunology", "cdisc_notes": "Further categorization of agent.", "az_notes": ""}, {"dataset": "AG", "variable": "AGPRESP", "label": "AG Pre-Specified", "variable_type": "C", "length": "1", "core": "Perm", "role": "Variable Qualifier", "format_field": "(NY)", "key": "", "seq": "15", "origin": "Assigned", "dataset_level": "Respiratory and Immunology", "cdisc_notes": "Used to indicate whether (\"Y\"/null) information about the use of a specific agent was solicited on the CRF.", "az_notes": ""}, {"dataset": "AG", "variable": "AGOCCUR", "label": "AG Occurrence", "variable_type": "C", "length": "1", "core": "Perm", "role": "Record Qualifier", "format_field": "(NY)", "key": "", "seq": "16", "origin": "Assigned", "dataset_level": "Respiratory and Immunology", "cdisc_notes": "When the use of specific agent is solicited, AGOCCUR is used to indicate whether (\"Y\"/\"N\") use of the agent occurred. Values are null for agents not specifically solicited.", "az_notes": ""}, {"dataset": "AG", "variable": "AGSTAT", "label": "Completion Status", "variable_type": "C", "length": "8", "core": "Perm", "role": "Record Qualifier", "format_field": "(ND)", "key": "", "seq": "17", "origin": "Derived", "dataset_level": "Respiratory and Immunology", "cdisc_notes": "Used to indicate that a question about a prespecified agent was not answered. Should be null or have a value of \"NOT DONE\".", "az_notes": ""}, {"dataset": "AG", "variable": "AGREASND", "label": "Reason Procedure Agent Not Collected", "variable_type": "C", "length": "200", "core": "Perm", "role": "Record Qualifier", "format_field": "", "key": "", "seq": "18", "origin": "CRF", "dataset_level": "Respiratory and Immunology", "cdisc_notes": "Describes the reason a response to a question about the occurrence of a procedure agent was not collected. Used in conjunction with AGSTAT when value is \"NOT DONE\".", "az_notes": ""}, {"dataset": "AG", "variable": "AGINDC", "label": "Indication", "variable_type": "C", "length": "40", "core": "Perm", "role": "Record Qualifier", "format_field": "", "key": "", "seq": "19", "origin": "CRF", "dataset_level": "Respiratory and Immunology", "cdisc_notes": "Denotes the indication for the intervention (e.g., why the therapy was taken or administered).", "az_notes": ""}, {"dataset": "AG", "variable": "AGCLAS", "label": "Agent Class", "variable_type": "C", "length": "40", "core": "Perm", "role": "Variable Qualifier", "format_field": "", "key": "", "seq": "20", "origin": "Assigned", "dataset_level": "Respiratory and Immunology", "cdisc_notes": "Drug class. May be obtained from coding. When coding to a single class, populate with class value. If using a dictionary and coding to multiple classes, follow guidance in Section 4.2.8.3, Multiple Values for a Non-result Qualifier Variable, or omit AGCLAS.", "az_notes": ""}, {"dataset": "AG", "variable": "AGCLASCD", "label": "Agent Class Code", "variable_type": "C", "length": "8", "core": "Perm", "role": "Variable Qualifier", "format_field": "", "key": "", "seq": "21", "origin": "Assigned", "dataset_level": "Respiratory and Immunology", "cdisc_notes": "Class code corresponding to AGCLAS. Drug class. May be obtained from coding. When coding to a single class, populate with class code. If using a dictionary and coding to multiple classes, follow guidance in Section 4.2.8.3, Multiple Values for a Non-result Qualifier Variable, or omit AGCLASCD.", "az_notes": ""}, {"dataset": "AG", "variable": "AGDOSE", "label": "Dose per Administration", "variable_type": "N", "length": "8", "core": "Perm", "role": "Record Qualifier", "format_field": "", "key": "", "seq": "22", "origin": "CRF", "dataset_level": "Respiratory and Immunology", "cdisc_notes": "Amount of AGTRT taken.", "az_notes": ""}, {"dataset": "AG", "variable": "AGDOSTXT", "label": "Dose Description", "variable_type": "C", "length": "40", "core": "Perm", "role": "Record Qualifier", "format_field": "", "key": "", "seq": "23", "origin": "", "dataset_level": "Respiratory and Immunology", "cdisc_notes": "Dosing amounts or a range of dosing information collected in text form. Units may be stored in AGDOSU. Examples: \"200-400\", \"15-20\".", "az_notes": ""}, {"dataset": "AG", "variable": "AGDOSU", "label": "Dose Units", "variable_type": "C", "length": "40", "core": "Perm", "role": "Variable Qualifier", "format_field": "(UNIT)", "key": "", "seq": "24", "origin": "CRF", "dataset_level": "Respiratory and Immunology", "cdisc_notes": "Units for AGDOSE and AGDOSTXT. Examples: \"ng\", \"mg\", \"mg/kg\".", "az_notes": ""}, {"dataset": "AG", "variable": "AGDOSFRM", "label": "Dose Form", "variable_type": "C", "length": "40", "core": "Perm", "role": "Variable Qualifier", "format_field": "(FRM)", "key": "", "seq": "25", "origin": "", "dataset_level": "Respiratory and Immunology", "cdisc_notes": "Dose form for AGTRT. Examples: \"TABLET\", \"AEROSOL\".", "az_notes": ""}, {"dataset": "AG", "variable": "AGDOSFRQ", "label": "Dosing Frequency per Interval", "variable_type": "C", "length": "40", "core": "Perm", "role": "Record Qualifier", "format_field": "(FREQ)", "key": "", "seq": "26", "origin": "CRF", "dataset_level": "Respiratory and Immunology", "cdisc_notes": "Usually expressed as the number of repeated administrations of AGDOSE within a specific time period. Example: \"ONCE\".", "az_notes": ""}, {"dataset": "AG", "variable": "AGDOSTOT", "label": "Total Daily Dose", "variable_type": "N", "length": "8", "core": "Perm", "role": "Record Qualifier", "format_field": "", "key": "", "seq": "27", "origin": "CRF", "dataset_level": "Respiratory and Immunology", "cdisc_notes": "Total daily dose of --TRT using the units in --DOSU. Used when dosing is collected as Total Daily Dose.", "az_notes": ""}, {"dataset": "AG", "variable": "AGDOSRGM", "label": "Intended Dose Regimen", "variable_type": "C", "length": "200", "core": "Perm", "role": "Record Qualifier", "format_field": "", "key": "", "seq": "28", "origin": "CRF", "dataset_level": "Respiratory and Immunology", "cdisc_notes": "Text description of the (intended) schedule or regimen for the Intervention. Example: \"TWO WEEKS ON, TWO WEEKS OFF\".", "az_notes": ""}, {"dataset": "AG", "variable": "AGROUTE", "label": "Route of Administration", "variable_type": "C", "length": "200", "core": "Perm", "role": "Record Qualifier", "format_field": "(ROUTE)", "key": "", "seq": "29", "origin": "CRF", "dataset_level": "Respiratory and Immunology", "cdisc_notes": "Route of administration for AGTRT. Example: \"ORAL\".", "az_notes": ""}, {"dataset": "AG", "variable": "AGLOT", "label": "Lot Number", "variable_type": "C", "length": "40", "core": "Perm", "role": "Record Qualifier", "format_field": "", "key": "", "seq": "30", "origin": "CRF", "dataset_level": "Respiratory and Immunology", "cdisc_notes": "Lot number for the intervention described in --TRT.", "az_notes": ""}, {"dataset": "AG", "variable": "AGLOC", "label": "Location of Administration", "variable_type": "C", "length": "40", "core": "Perm", "role": "Record Qualifier", "format_field": "(LOC)", "key": "", "seq": "31", "origin": "CRF", "dataset_level": "Respiratory and Immunology", "cdisc_notes": "Anatomical location of an intervention, such as an injection site. Example: ARM for an injection.", "az_notes": ""}, {"dataset": "AG", "variable": "AGLAT", "label": "Laterality", "variable_type": "C", "length": "40", "core": "Perm", "role": "Variable Qualifier", "format_field": "(LAT)", "key": "", "seq": "32", "origin": "CRF", "dataset_level": "Respiratory and Immunology", "cdisc_notes": "Qualifier for anatomical location further detailing laterality of intervention administration. Examples: \"RIGHT\", \"LEFT\", \"BILATERAL\".", "az_notes": ""}, {"dataset": "AG", "variable": "AGDIR", "label": "Directionality", "variable_type": "C", "length": "40", "core": "Perm", "role": "Variable Qualifier", "format_field": "(DIR)", "key": "", "seq": "33", "origin": "CRF", "dataset_level": "Respiratory and Immunology", "cdisc_notes": "Qualifier for anatomical location further detailing directionality of intervention administration. Examples: \"ANTERIOR\", \"LOWER\", \"PROXIMAL\".", "az_notes": ""}, {"dataset": "AG", "variable": "AGFAST", "label": "Fasting Status", "variable_type": "C", "length": "2", "core": "Perm", "role": "Record Qualifier", "format_field": "(NY)", "key": "", "seq": "34", "origin": "CRF", "dataset_level": "Respiratory and Immunology", "cdisc_notes": "Indicator used to identify fasting status. Valid values include \"Y\", \"N\", \"U\" or null if not relevant.", "az_notes": ""}, {"dataset": "AG", "variable": "AGTRTV", "label": "Treatment Vehicle", "variable_type": "C", "length": "40", "core": "Perm", "role": "Record Qualifier", "format_field": "", "key": "", "seq": "35", "origin": "CRF", "dataset_level": "Respiratory and Immunology", "cdisc_notes": "Vehicle for administration of treatment, such as a liquid in which the treatment drug is dissolved. Example: \"SALINE\".", "az_notes": ""}, {"dataset": "AG", "variable": "AGVAMT", "label": "Treatment Vehicle Amount", "variable_type": "N", "length": "8", "core": "Perm", "role": "Record Qualifier", "format_field": "", "key": "", "seq": "36", "origin": "CRF", "dataset_level": "Respiratory and Immunology", "cdisc_notes": "Amount of the prepared product (treatment + vehicle) administered or given. Note: should not be diluent amount alone.", "az_notes": ""}, {"dataset": "AG", "variable": "AGVAMTU", "label": "Treatment Vehicle Amount Units", "variable_type": "C", "length": "40", "core": "Perm", "role": "Variable Qualifier", "format_field": "", "key": "", "seq": "37", "origin": "CRF", "dataset_level": "Respiratory and Immunology", "cdisc_notes": "Units for the prepared product (treatment + vehicle). Examples: \"mL\", \"mg\".", "az_notes": ""}, {"dataset": "AG", "variable": "AGADJ", "label": "Reason for Dose Adjustment", "variable_type": "C", "length": "200", "core": "Perm", "role": "Record Qualifier", "format_field": "", "key": "", "seq": "38", "origin": "CRF", "dataset_level": "Respiratory and Immunology", "cdisc_notes": "Describes reason or explanation of why a dose is adjusted. Examples \"ADVERSE EVENT\", \"INSUFFICIENT RESPONSE\", \"NON-MEDICAL REASON\".", "az_notes": ""}, {"dataset": "AG", "variable": "VISITNUM", "label": "Visit Number", "variable_type": "N", "length": "8", "core": "Exp", "role": "Timing", "format_field": "", "key": "", "seq": "39", "origin": "Derived", "dataset_level": "Respiratory and Immunology", "cdisc_notes": "1. Clinical encounter number. \\n 2. Numeric version of VISIT, used for sorting.", "az_notes": ""}, {"dataset": "AG", "variable": "VISIT", "label": "Visit Name", "variable_type": "C", "length": "40", "core": "Perm", "role": "Timing", "format_field": "", "key": "", "seq": "40", "origin": "Protocol", "dataset_level": "Respiratory and Immunology", "cdisc_notes": "1. Protocol-defined description of clinical encounter. \\n 2. May be used in addition to VISITNUM and/or VISITDY.", "az_notes": ""}, {"dataset": "AG", "variable": "VISITDY", "label": "Planned Study Day of Visit", "variable_type": "N", "length": "8", "core": "Perm", "role": "Timing", "format_field": "", "key": "", "seq": "41", "origin": "Assigned", "dataset_level": "Respiratory and Immunology", "cdisc_notes": "Planned study day of the visit based upon RFSTDTC in Demographics.", "az_notes": ""}, {"dataset": "AG", "variable": "TAETORD", "label": "Planned Order of Element within Arm", "variable_type": "N", "length": "8", "core": "Perm", "role": "Timing", "format_field": "", "key": "", "seq": "42", "origin": "Protocol", "dataset_level": "Respiratory and Immunology", "cdisc_notes": "Number that gives the planned order of the element within the arm for the element in which the agent administration started.", "az_notes": ""}, {"dataset": "AG", "variable": "EPOCH", "label": "Epoch", "variable_type": "C", "length": "40", "core": "Perm", "role": "Timing", "format_field": "(EPOCH)", "key": "", "seq": "43", "origin": "Protocol", "dataset_level": "Respiratory and Immunology", "cdisc_notes": "Epoch associated with the start date/time of the agent administration started.", "az_notes": ""}, {"dataset": "AG", "variable": "AGDTC", "label": "Date/Time of Collection", "variable_type": "C", "length": "19", "core": "Perm", "role": "Timing", "format_field": "ISO 8601", "key": "", "seq": "44", "origin": "CRF", "dataset_level": "Respiratory and Immunology", "cdisc_notes": "Collection date and time of an observation.", "az_notes": ""}, {"dataset": "AG", "variable": "AGSTDTC", "label": "Start Date/Time of Agent", "variable_type": "C", "length": "19", "core": "Perm", "role": "Timing", "format_field": "ISO 8601", "key": "3", "seq": "45", "origin": "CRF", "dataset_level": "Respiratory and Immunology", "cdisc_notes": "The date/time when administration of the treatment indicated by AGTRT and the dosing variables began.", "az_notes": ""}, {"dataset": "AG", "variable": "AGENDTC", "label": "End Date/Time of Agent", "variable_type": "C", "length": "19", "core": "Perm", "role": "Timing", "format_field": "ISO 8601", "key": "", "seq": "46", "origin": "CRF", "dataset_level": "Respiratory and Immunology", "cdisc_notes": "The date/time when administration of the treatment indicated by AGTRT and the dosing variables ended.", "az_notes": ""}, {"dataset": "AG", "variable": "AGDY", "label": "Study Day of Collection", "variable_type": "N", "length": "8", "core": "Perm", "role": "Timing", "format_field": "", "key": "", "seq": "47", "origin": "Derived", "dataset_level": "Respiratory and Immunology", "cdisc_notes": "Actual study day of visit/collection/exam expressed in integer days relative to the sponsor-defined RFSTDTC in Demographics.", "az_notes": ""}, {"dataset": "AG", "variable": "AGSTDY", "label": "Study Day of Start of Agent", "variable_type": "N", "length": "8", "core": "Perm", "role": "Timing", "format_field": "", "key": "", "seq": "48", "origin": "Derived", "dataset_level": "Respiratory and Immunology", "cdisc_notes": "Study day of start of agent relative to the sponsor-defined RFSTDTC.", "az_notes": ""}, {"dataset": "AG", "variable": "AGENDY", "label": "Study Day of End of Agent", "variable_type": "N", "length": "8", "core": "Perm", "role": "Timing", "format_field": "", "key": "", "seq": "49", "origin": "Derived", "dataset_level": "Respiratory and Immunology", "cdisc_notes": "Study day of end of agent relative to the sponsor-defined RFSTDTC.", "az_notes": ""}, {"dataset": "AG", "variable": "AGDUR", "label": "Duration of Agent", "variable_type": "C", "length": "40", "core": "Perm", "role": "Timing", "format_field": "ISO 8601", "key": "", "seq": "50", "origin": "CRF", "dataset_level": "Respiratory and Immunology", "cdisc_notes": "Collected duration for an agent episode. Used only if collected on the CRF and not derived from start and end date/times.", "az_notes": ""}, {"dataset": "AG", "variable": "AGTPT", "label": "Planned Time Point Name", "variable_type": "C", "length": "40", "core": "Perm", "role": "Timing", "format_field": "", "key": "", "seq": "51", "origin": "Assigned", "dataset_level": "Respiratory and Immunology", "cdisc_notes": "Text description of time when a measurement or observation should be taken as defined in the protocol. This may be represented as an elapsed time relative to a fixed reference point, such as time of last dose. See --TPTNUM and --TPTREF.", "az_notes": ""}, {"dataset": "AG", "variable": "AGTPTNUM", "label": "Planned Time Point Number", "variable_type": "N", "length": "8", "core": "Perm", "role": "Timing", "format_field": "", "key": "", "seq": "52", "origin": "Protocol", "dataset_level": "Respiratory and Immunology", "cdisc_notes": "Numeric version of planned time point used in sorting.", "az_notes": ""}, {"dataset": "AG", "variable": "AGELTM", "label": "Planned Elapsed Time from Time Point Ref", "variable_type": "C", "length": "40", "core": "Perm", "role": "Timing", "format_field": "ISO 8601", "key": "", "seq": "53", "origin": "Protocol", "dataset_level": "Respiratory and Immunology", "cdisc_notes": "Planned Elapsed time relative to a planned fixed reference (--TPTREF) such as \"Previous Dose\" or \"Previous Meal\". This variable is useful where there are repetitive measures. Not a clock time or a date/time variable, but an interval.", "az_notes": ""}, {"dataset": "AG", "variable": "AGTPTREF", "label": "Time Point Reference", "variable_type": "C", "length": "40", "core": "Perm", "role": "Timing", "format_field": "(AGTPTREF)", "key": "", "seq": "54", "origin": "Assigned", "dataset_level": "Respiratory and Immunology", "cdisc_notes": "Description of the fixed reference point referred to by --ELTM, --TPTNUM, --TPT, --STINT, and --ENINT. Examples: \"PREVIOUS DOSE\", \"PREVIOUS MEAL\".", "az_notes": ""}, {"dataset": "AG", "variable": "AGSTRF", "label": "Start Relative to Reference Period", "variable_type": "C", "length": "40", "core": "Perm", "role": "Timing", "format_field": "(STENRF)", "key": "", "seq": "55", "origin": "Assigned", "dataset_level": "Respiratory and Immunology", "cdisc_notes": "Describes the start of the agent relative to sponsor-defined reference period. The sponsor-defined reference period is a continuous period of time defined by a discrete starting point and a discrete ending point (represented by RFSTDTC and RFENDTC in Demographics). If information such as \"PRIOR\", \"ONGOING\", or \"CONTINUING\" was collected, this information may be translated into AGSTRF. \\n Not all values of the codelist are allowable for this variable. See Section 4.4.7, Use of Relative Timing Variables.", "az_notes": ""}, {"dataset": "AG", "variable": "AGENRF", "label": "End Relative to Reference Period", "variable_type": "C", "length": "40", "core": "Perm", "role": "Timing", "format_field": "(STENRF)", "key": "", "seq": "56", "origin": "Assigned", "dataset_level": "Respiratory and Immunology", "cdisc_notes": "Describes the end of the agent relative to the sponsor-defined reference period. The sponsor-defined reference period is a continuous period of time defined by a discrete starting point and a discrete ending point (represented by RFSTDTC and RFENDTC in Demographics). If information such as \"PRIOR\", \"ONGOING\", or \"CONTINUING\" was collected, this information may be translated into AGENRF. \\n Not all values of the codelist are allowable for this variable. See Section 4.4.7, Use of Relative Timing Variables.", "az_notes": ""}, {"dataset": "AG", "variable": "AGEVLINT", "label": "Evaluation Interval", "variable_type": "C", "length": "40", "core": "Perm", "role": "Timing", "format_field": "ISO 8601", "key": "", "seq": "57", "origin": "", "dataset_level": "Respiratory and Immunology", "cdisc_notes": "Duration of interval associated with an observation such as a finding --TESTCD. Usually used with --DTC to describe an interval of this duration that ended at the time represented in --DTC. Example: \"-P2M\" to represent a period of the past 2 months as the evaluation interval for a question from a questionnaire.", "az_notes": ""}, {"dataset": "AG", "variable": "AGSTRTPT", "label": "Start Relative to Reference Time Point", "variable_type": "C", "length": "40", "core": "Perm", "role": "Timing", "format_field": "(STENRF)", "key": "", "seq": "58", "origin": "Assigned", "dataset_level": "Respiratory and Immunology", "cdisc_notes": "Identifies the start of the agent as being before or after the sponsor-defined reference time point defined by variable AGSTTPT. \\n Not all values of the codelist are allowable for this variable. See Section 4.4.7, Use of Relative Timing Variables.", "az_notes": ""}, {"dataset": "AG", "variable": "AGSTTPT", "label": "Start Reference Time Point", "variable_type": "C", "length": "40", "core": "Perm", "role": "Timing", "format_field": "", "key": "", "seq": "59", "origin": "Assigned", "dataset_level": "Respiratory and Immunology", "cdisc_notes": "Description or date/time in ISO 8601 character format of the reference point referred to by AGSTRTPT. Examples: \"2003-12-15\", \"VISIT 1\".", "az_notes": ""}, {"dataset": "AG", "variable": "AGENRTPT", "label": "End Relative to Reference Time Point", "variable_type": "C", "length": "40", "core": "Perm", "role": "Timing", "format_field": "(STENRF)", "key": "", "seq": "60", "origin": "Assigned", "dataset_level": "Respiratory and Immunology", "cdisc_notes": "Identifies the end of the agent as being before or after the reference time point defined by variable AGENTPT. Identifies the end of the agent as being before or after the sponsor-defined reference time point defined by variable AGENTPT. \\n Not all values of the codelist are allowable for this variable. See Section 4.4.7, Use of Relative Timing Variables.", "az_notes": ""}, {"dataset": "AG", "variable": "AGENTPT", "label": "End Reference Time Point", "variable_type": "C", "length": "40", "core": "Perm", "role": "Timing", "format_field": "", "key": "", "seq": "61", "origin": "Assigned", "dataset_level": "Respiratory and Immunology", "cdisc_notes": "Description or date/time in ISO 8601 character format of the reference point referred to by AGENRTPT. Examples: \"2003-12-25\", \"VISIT 2\".", "az_notes": ""}, {"dataset": "AG", "variable": "MODULE", "label": "Source Module Short Name", "variable_type": "C", "length": "8", "core": "Supp", "role": "", "format_field": "(MODULE)", "key": "", "seq": "62", "origin": "CRF", "dataset_level": "Respiratory and Immunology", "cdisc_notes": "", "az_notes": ""}, {"dataset": "AG", "variable": "VISITDTC", "label": "Date of Visit", "variable_type": "C", "length": "19", "core": "Supp", "role": "", "format_field": "ISO 8601", "key": "", "seq": "63", "origin": "CRF", "dataset_level": "Respiratory and Immunology", "cdisc_notes": "", "az_notes": ""}, {"dataset": "AG", "variable": "AGCD", "label": "Medication Code", "variable_type": "C", "length": "18", "core": "Supp", "role": "", "format_field": "", "key": "", "seq": "64", "origin": "", "dataset_level": "Respiratory and Immunology", "cdisc_notes": "", "az_notes": ""}, {"dataset": "AG", "variable": "AGDECOD2", "label": "Preferred Name 2", "variable_type": "C", "length": "200", "core": "Supp", "role": "", "format_field": "", "key": "", "seq": "65", "origin": "", "dataset_level": "Respiratory and Immunology", "cdisc_notes": "", "az_notes": ""}, {"dataset": "AG", "variable": "AGDECOD3", "label": "Preferred Name 3", "variable_type": "C", "length": "200", "core": "Supp", "role": "", "format_field": "", "key": "", "seq": "66", "origin": "", "dataset_level": "Respiratory and Immunology", "cdisc_notes": "", "az_notes": ""}, {"dataset": "AG", "variable": "AGDECOD4", "label": "Preferred Name 4", "variable_type": "C", "length": "200", "core": "Supp", "role": "", "format_field": "", "key": "", "seq": "67", "origin": "", "dataset_level": "Respiratory and Immunology", "cdisc_notes": "", "az_notes": ""}, {"dataset": "AG", "variable": "AGDECOD5", "label": "Preferred Name 5", "variable_type": "C", "length": "200", "core": "Supp", "role": "", "format_field": "", "key": "", "seq": "68", "origin": "", "dataset_level": "Respiratory and Immunology", "cdisc_notes": "", "az_notes": ""}, {"dataset": "AG", "variable": "AGDECOD6", "label": "Preferred Name 6", "variable_type": "C", "length": "200", "core": "Supp", "role": "", "format_field": "", "key": "", "seq": "69", "origin": "", "dataset_level": "Respiratory and Immunology", "cdisc_notes": "", "az_notes": ""}, {"dataset": "AG", "variable": "AGDECOD7", "label": "Preferred Name 7", "variable_type": "C", "length": "200", "core": "Supp", "role": "", "format_field": "", "key": "", "seq": "70", "origin": "", "dataset_level": "Respiratory and Immunology", "cdisc_notes": "", "az_notes": ""}, {"dataset": "AG", "variable": "AGDECOD8", "label": "Preferred Name 8", "variable_type": "C", "length": "200", "core": "Supp", "role": "", "format_field": "", "key": "", "seq": "71", "origin": "", "dataset_level": "Respiratory and Immunology", "cdisc_notes": "", "az_notes": ""}, {"dataset": "AG", "variable": "AGDTXT", "label": "Medication Dictionary Text", "variable_type": "C", "length": "200", "core": "Supp", "role": "", "format_field": "", "key": "", "seq": "72", "origin": "", "dataset_level": "Respiratory and Immunology", "cdisc_notes": "", "az_notes": ""}, {"dataset": "AG", "variable": "AGDTXT2", "label": "Medication Dictionary Text 2", "variable_type": "C", "length": "200", "core": "Supp", "role": "", "format_field": "", "key": "", "seq": "73", "origin": "", "dataset_level": "Respiratory and Immunology", "cdisc_notes": "", "az_notes": ""}, {"dataset": "AG", "variable": "AGDTXT3", "label": "Medication Dictionary Text 3", "variable_type": "C", "length": "200", "core": "Supp", "role": "", "format_field": "", "key": "", "seq": "74", "origin": "", "dataset_level": "Respiratory and Immunology", "cdisc_notes": "", "az_notes": ""}, {"dataset": "AG", "variable": "AGDTXT4", "label": "Medication Dictionary Text 4", "variable_type": "C", "length": "200", "core": "Supp", "role": "", "format_field": "", "key": "", "seq": "75", "origin": "", "dataset_level": "Respiratory and Immunology", "cdisc_notes": "", "az_notes": ""}, {"dataset": "AG", "variable": "AGDTXT5", "label": "Medication Dictionary Text 5", "variable_type": "C", "length": "200", "core": "Supp", "role": "", "format_field": "", "key": "", "seq": "76", "origin": "", "dataset_level": "Respiratory and Immunology", "cdisc_notes": "", "az_notes": ""}, {"dataset": "AG", "variable": "AGDTXT6", "label": "Medication Dictionary Text 6", "variable_type": "C", "length": "200", "core": "Supp", "role": "", "format_field": "", "key": "", "seq": "77", "origin": "", "dataset_level": "Respiratory and Immunology", "cdisc_notes": "", "az_notes": ""}, {"dataset": "AG", "variable": "AGDTXT7", "label": "Medication Dictionary Text 7", "variable_type": "C", "length": "200", "core": "Supp", "role": "", "format_field": "", "key": "", "seq": "78", "origin": "", "dataset_level": "Respiratory and Immunology", "cdisc_notes": "", "az_notes": ""}, {"dataset": "AG", "variable": "AGDTXT8", "label": "Medication Dictionary Text 8", "variable_type": "C", "length": "200", "core": "Supp", "role": "", "format_field": "", "key": "", "seq": "79", "origin": "", "dataset_level": "Respiratory and Immunology", "cdisc_notes": "", "az_notes": ""}, {"dataset": "AG", "variable": "AGGROUP", "label": "Pref. Grouping Term", "variable_type": "C", "length": "200", "core": "Supp", "role": "", "format_field": "", "key": "", "seq": "80", "origin": "", "dataset_level": "Respiratory and Immunology", "cdisc_notes": "", "az_notes": ""}, {"dataset": "AG", "variable": "AGGROUP3", "label": "Pref. Group Term 3", "variable_type": "C", "length": "200", "core": "Supp", "role": "", "format_field": "", "key": "", "seq": "81", "origin": "", "dataset_level": "Respiratory and Immunology", "cdisc_notes": "", "az_notes": ""}, {"dataset": "AG", "variable": "AGGROUP4", "label": "Pref. Group Term 4", "variable_type": "C", "length": "200", "core": "Supp", "role": "", "format_field": "", "key": "", "seq": "82", "origin": "", "dataset_level": "Respiratory and Immunology", "cdisc_notes": "", "az_notes": ""}, {"dataset": "AG", "variable": "AGGROUP5", "label": "Pref. Group Term 5", "variable_type": "C", "length": "200", "core": "Supp", "role": "", "format_field": "", "key": "", "seq": "83", "origin": "", "dataset_level": "Respiratory and Immunology", "cdisc_notes": "", "az_notes": ""}, {"dataset": "AG", "variable": "AGGROUP6", "label": "Pref. Group Term 6", "variable_type": "C", "length": "200", "core": "Supp", "role": "", "format_field": "", "key": "", "seq": "84", "origin": "", "dataset_level": "Respiratory and Immunology", "cdisc_notes": "", "az_notes": ""}, {"dataset": "AG", "variable": "AGGROUP7", "label": "Pref. Group Term 7", "variable_type": "C", "length": "200", "core": "Supp", "role": "", "format_field": "", "key": "", "seq": "85", "origin": "", "dataset_level": "Respiratory and Immunology", "cdisc_notes": "", "az_notes": ""}, {"dataset": "AG", "variable": "AGGROUP8", "label": "Pref. Group Term 8", "variable_type": "C", "length": "200", "core": "Supp", "role": "", "format_field": "", "key": "", "seq": "86", "origin": "", "dataset_level": "Respiratory and Immunology", "cdisc_notes": "", "az_notes": ""}, {"dataset": "AG", "variable": "INGRED1", "label": "Active Ingredient 1", "variable_type": "C", "length": "200", "core": "Supp", "role": "", "format_field": "", "key": "", "seq": "87", "origin": "", "dataset_level": "Respiratory and Immunology", "cdisc_notes": "", "az_notes": ""}, {"dataset": "AG", "variable": "INGRED2", "label": "Active Ingredient 2", "variable_type": "C", "length": "200", "core": "Supp", "role": "", "format_field": "", "key": "", "seq": "88", "origin": "", "dataset_level": "Respiratory and Immunology", "cdisc_notes": "", "az_notes": ""}, {"dataset": "AG", "variable": "AGGROUP2", "label": "AGGROUP2", "variable_type": "C", "length": "200", "core": "Supp", "role": "", "format_field": "", "key": "", "seq": "89", "origin": "", "dataset_level": "Respiratory and Immunology", "cdisc_notes": "", "az_notes": ""}, {"dataset": "AG", "variable": "WHODRGV", "label": "WHO Drug Dictionary Version", "variable_type": "C", "length": "19", "core": "Supp", "role": "", "format_field": "", "key": "", "seq": "90", "origin": "", "dataset_level": "Respiratory and Immunology", "cdisc_notes": "", "az_notes": ""}, {"dataset": "APMH", "variable": "STUDYID", "label": "Study Identifier", "variable_type": "C", "length": "21", "core": "Perm", "role": "Identifier", "format_field": "", "key": "1", "seq": "1", "origin": "Protocol", "dataset_level": "Corporate", "cdisc_notes": "Unique identifier for a study.", "az_notes": ""}, {"dataset": "APMH", "variable": "DOMAIN", "label": "Domain Abbreviation", "variable_type": "C", "length": "8", "core": "Req", "role": "Identifier", "format_field": "(DOMAIN)", "key": "", "seq": "2", "origin": "Assigned", "dataset_level": "Corporate", "cdisc_notes": "Two-character abbreviation for the domain.", "az_notes": ""}, {"dataset": "APMH", "variable": "APID", "label": "Associated Persons Identifier", "variable_type": "C", "length": "30", "core": "Req", "role": "Identifier", "format_field": "", "key": "2", "seq": "3", "origin": "CRF", "dataset_level": "Corporate", "cdisc_notes": "Identifier for a single associated person, a group of associated persons, or a pool of associated persons.", "az_notes": ""}, {"dataset": "APMH", "variable": "MHSEQ", "label": "Sequence Number", "variable_type": "N", "length": "8", "core": "Perm", "role": "Identifier", "format_field": "", "key": "", "seq": "4", "origin": "Derived", "dataset_level": "Corporate", "cdisc_notes": "Sequence number to ensure uniqueness of records within a dataset for a subject (or within a parameter, in the case of the Trial Summary domain). May be any valid number (including decimals) and does not have to start at 1. Should be assigned to be in a consistent chronological order.", "az_notes": ""}, {"dataset": "APMH", "variable": "MHTERM", "label": "Reported Term for the Medical History", "variable_type": "C", "length": "200", "core": "Perm", "role": "Topic", "format_field": "", "key": "5", "seq": "5", "origin": "CRF", "dataset_level": "Corporate", "cdisc_notes": "Topic variable for an event observation, which is the verbatim or pre-specified name of the event.", "az_notes": ""}, {"dataset": "APMH", "variable": "MHPRESP", "label": "Medical History Event Pre-Specified", "variable_type": "C", "length": "1", "core": "Perm", "role": "Record Qualifier", "format_field": "(NY)", "key": "", "seq": "6", "origin": "Assigned", "dataset_level": "Corporate", "cdisc_notes": "Used to indicate whether the event described by --TERM was pre-specified on a CRF. Value is Y for pre-specified events, null for spontaneously reported events.", "az_notes": ""}, {"dataset": "APMH", "variable": "MHOCCUR", "label": "Medical History Occurrence", "variable_type": "C", "length": "1", "core": "Perm", "role": "Record Qualifier", "format_field": "(NY)", "key": "", "seq": "7", "origin": "Assigned", "dataset_level": "Corporate", "cdisc_notes": "Used to record whether a pre-specified event occurred when information about the occurrence of a specific event is solicited.", "az_notes": ""}, {"dataset": "APMH", "variable": "VISITNUM", "label": "Visit Number", "variable_type": "N", "length": "8", "core": "Perm", "role": "Timing", "format_field": "", "key": "", "seq": "8", "origin": "Derived", "dataset_level": "Corporate", "cdisc_notes": "1. Clinical encounter number. 2. Numeric version of VISIT, used for sorting.", "az_notes": ""}, {"dataset": "APMH", "variable": "VISIT", "label": "Visit Name", "variable_type": "C", "length": "40", "core": "Perm", "role": "Timing", "format_field": "", "key": "", "seq": "9", "origin": "Protocol", "dataset_level": "Corporate", "cdisc_notes": "1. Protocol-defined description of clinical encounter. 2. May be used in addition to VISITNUM and/or VISITDY.", "az_notes": ""}, {"dataset": "APMH", "variable": "VISITDY", "label": "Planned Study Day of Visit", "variable_type": "N", "length": "8", "core": "Perm", "role": "Timing", "format_field": "", "key": "", "seq": "10", "origin": "Assigned", "dataset_level": "Corporate", "cdisc_notes": "Planned study day of VISIT based upon RFSTDTC in Demographics. Should be an integer.", "az_notes": ""}, {"dataset": "APMH", "variable": "RSUBJID", "label": "Related Subject", "variable_type": "C", "length": "30", "core": "Perm", "role": "Record Qualifier", "format_field": "", "key": "3", "seq": "11", "origin": "Derived", "dataset_level": "Corporate", "cdisc_notes": "Identifier for a related subject or pool of subjects. RSUBJID may be populated with the USUBJID of the related subject or the POOLID of the related pool. RSUBJID will be null for data about associated persons who are related to the study but not to any study subjects.", "az_notes": ""}, {"dataset": "APMH", "variable": "SREL", "label": "Subject, Device, or Study Relationship", "variable_type": "C", "length": "200", "core": "Perm", "role": "Record Qualifier", "format_field": "", "key": "4", "seq": "12", "origin": "CRF", "dataset_level": "Corporate", "cdisc_notes": "If RSUBJID is populated, describes the relationship of the associated person(s) identified in APID to the subject or pool identified in RSUBJID. If RDEVID is populated, describes the relationship of the associated person(s) identified in APID to the subject or pool identified in RDEVID. If RSUBJID and RDEVID are null, SREL describes the relationship of the associated person(s) identified in APID to the study identified in STUDYID.", "az_notes": ""}, {"dataset": "APRELSUB", "variable": "STUDYID", "label": "Study Identifier", "variable_type": "C", "length": "200", "core": "Req", "role": "Identifier", "format_field": "", "key": "1", "seq": "1", "origin": "Protocol", "dataset_level": "Corporate", "cdisc_notes": "", "az_notes": ""}, {"dataset": "APRELSUB", "variable": "APID", "label": "Associated Persons Identifier", "variable_type": "C", "length": "200", "core": "Perm", "role": "Identifier", "format_field": "", "key": "", "seq": "2", "origin": "CRF", "dataset_level": "Corporate", "cdisc_notes": "", "az_notes": ""}, {"dataset": "APRELSUB", "variable": "RSUBJID", "label": "Related Subject or Pool Identifier", "variable_type": "C", "length": "200", "core": "Exp", "role": "Identifier", "format_field": "", "key": "3", "seq": "3", "origin": "Derived", "dataset_level": "Corporate", "cdisc_notes": "", "az_notes": ""}, {"dataset": "APRELSUB", "variable": "RDEVID", "label": "Related Device Identifier", "variable_type": "C", "length": "200", "core": "Perm", "role": "Identifier", "format_field": "", "key": "", "seq": "4", "origin": "Derived", "dataset_level": "Corporate", "cdisc_notes": "", "az_notes": ""}, {"dataset": "APRELSUB", "variable": "SREL", "label": "Subject, Device, or Study Relationship", "variable_type": "C", "length": "200", "core": "Req", "role": "Record Qualifier", "format_field": "", "key": "2", "seq": "5", "origin": "CRF", "dataset_level": "Corporate", "cdisc_notes": "", "az_notes": ""}, {"dataset": "BE", "variable": "STUDYID", "label": "Study Identifier", "variable_type": "C", "length": "21", "core": "Req", "role": "Identifier", "format_field": "", "key": "1", "seq": "1", "origin": "Protocol", "dataset_level": "Corporate", "cdisc_notes": "Unique identifier for a study.", "az_notes": ""}, {"dataset": "BE", "variable": "DOMAIN", "label": "Domain Abbreviation", "variable_type": "C", "length": "8", "core": "Req", "role": "Identifier", "format_field": "(DOMAIN)", "key": "", "seq": "2", "origin": "Assigned", "dataset_level": "Corporate", "cdisc_notes": "Two-character abbreviation for the domain.", "az_notes": ""}, {"dataset": "BE", "variable": "USUBJID", "label": "Unique Subject Identifier", "variable_type": "C", "length": "30", "core": "Req", "role": "Identifier", "format_field": "", "key": "2", "seq": "3", "origin": "Derived", "dataset_level": "Corporate", "cdisc_notes": "Identifier used to uniquely identify a subject across all studies for all applications or submissions involving the product.", "az_notes": ""}, {"dataset": "BE", "variable": "SPDEVID", "label": "Sponsor Device Identifier", "variable_type": "C", "length": "40", "core": "Perm", "role": "Identifier", "format_field": "", "key": "", "seq": "4", "origin": "CRF", "dataset_level": "Corporate", "cdisc_notes": "Sponsor-defined identifier for a device.", "az_notes": ""}, {"dataset": "BE", "variable": "BESEQ", "label": "Sequence Number", "variable_type": "N", "length": "8", "core": "Req", "role": "Identifier", "format_field": "", "key": "", "seq": "5", "origin": "Derived", "dataset_level": "Corporate", "cdisc_notes": "Sequence number to ensure uniqueness of records within a dataset for a subject. May be any valid number (including decimals) and does not have to start at 1.", "az_notes": ""}, {"dataset": "BE", "variable": "BEGRPID", "label": "Group ID", "variable_type": "C", "length": "40", "core": "Perm", "role": "Identifier", "format_field": "", "key": "", "seq": "6", "origin": "Derived", "dataset_level": "Corporate", "cdisc_notes": "Optional group identifier, used to link together a block of related records within a subject in a domain.", "az_notes": ""}, {"dataset": "BE", "variable": "BEREFID", "label": "Reference ID", "variable_type": "C", "length": "40", "core": "Exp", "role": "Identifier", "format_field": "", "key": "", "seq": "7", "origin": "", "dataset_level": "Corporate", "cdisc_notes": "Internal or external identifier for the specimen affected or created by the event.", "az_notes": ""}, {"dataset": "BE", "variable": "BESPID", "label": "Sponsor-Defined Identifier", "variable_type": "C", "length": "40", "core": "Perm", "role": "Identifier", "format_field": "", "key": "", "seq": "8", "origin": "", "dataset_level": "Corporate", "cdisc_notes": "Optional sponsor-defined reference number. Example: Line number on a CRF page.", "az_notes": ""}, {"dataset": "BE", "variable": "BETERM", "label": "Reported Term for the Biospecimen Event", "variable_type": "C", "length": "200", "core": "Req", "role": "Topic", "format_field": "", "key": "4", "seq": "9", "origin": "CRF", "dataset_level": "Corporate", "cdisc_notes": "Topic variable for an event observation, which is the verbatim or pre-specified name of the event.", "az_notes": ""}, {"dataset": "BE", "variable": "BEMODIFY", "label": "Modified Reported Term", "variable_type": "C", "length": "200", "core": "Perm", "role": "Synonym Qualifier", "format_field": "", "key": "", "seq": "10", "origin": "Assigned", "dataset_level": "Corporate", "cdisc_notes": "If the value for BETERM is modified for coding purposes, then the modified text is placed here.", "az_notes": ""}, {"dataset": "BE", "variable": "BEDECOD", "label": "Dictionary-Derived Term", "variable_type": "C", "length": "200", "core": "Perm", "role": "Synonym Qualifier", "format_field": "(BEDECOD)", "key": "", "seq": "11", "origin": "Assigned", "dataset_level": "Corporate", "cdisc_notes": "Dictionary-derived text description of BETERM or BEMODIFY, if applicable.", "az_notes": ""}, {"dataset": "BE", "variable": "BECAT", "label": "Category for Biospecimen Event", "variable_type": "C", "length": "40", "core": "Perm", "role": "Grouping Qualifier", "format_field": "", "key": "", "seq": "12", "origin": "Assigned", "dataset_level": "Corporate", "cdisc_notes": "Used to define a category of topic-variable values. Example: COLLECTION, PREPARATION, TRANSPORT.", "az_notes": ""}, {"dataset": "BE", "variable": "BESCAT", "label": "Subcategory for Biospecimen Event", "variable_type": "C", "length": "40", "core": "Perm", "role": "Grouping Qualifier", "format_field": "", "key": "", "seq": "13", "origin": "Assigned", "dataset_level": "Corporate", "cdisc_notes": "A further categorization of BECAT values.", "az_notes": ""}, {"dataset": "BE", "variable": "BELOC", "label": "Anatomical Location of Event", "variable_type": "C", "length": "40", "core": "Perm", "role": "Record Qualifier", "format_field": "(LOC)", "key": "", "seq": "14", "origin": "CRF", "dataset_level": "Corporate", "cdisc_notes": "Describes the anatomical location relevant for the event (e.g. BRAIN, LUNG).", "az_notes": ""}, {"dataset": "BE", "variable": "BEPARTY", "label": "Accountable Party", "variable_type": "C", "length": "200", "core": "Perm", "role": "Variable Qualifier", "format_field": "", "key": "", "seq": "15", "origin": "", "dataset_level": "Corporate", "cdisc_notes": "Party accountable for the transferable object (e.g. specimen) as a result of the activity performed in the associated BETERM variable. The party could be an individual (e.g., subject), an organization (e.g., sponsor), or a location that is a proxy for an individual or organization (e.g., site). It is usually a somewhat general term that is further identified in the BEPRTYID variable.", "az_notes": ""}, {"dataset": "BE", "variable": "BEPRTYID", "label": "Identification of Accountable Party", "variable_type": "C", "length": "40", "core": "Perm", "role": "Record Qualifier", "format_field": "", "key": "", "seq": "16", "origin": "", "dataset_level": "Corporate", "cdisc_notes": "Identification of the specific party accountable for the transferable object (e.g. Specimen) after the action in BETERM is taken. Used in conjunction with BEPARTY.", "az_notes": ""}, {"dataset": "BE", "variable": "VISITNUM", "label": "Visit Number", "variable_type": "N", "length": "8", "core": "Exp", "role": "Timing", "format_field": "", "key": "", "seq": "17", "origin": "Derived", "dataset_level": "Corporate", "cdisc_notes": "Clinical encounter number. Numeric version of VISIT, used for sorting.", "az_notes": ""}, {"dataset": "BE", "variable": "VISIT", "label": "Visit Name", "variable_type": "C", "length": "40", "core": "Perm", "role": "Timing", "format_field": "", "key": "", "seq": "18", "origin": "Protocol", "dataset_level": "Corporate", "cdisc_notes": "Protocol-defined description of clinical encounter.", "az_notes": ""}, {"dataset": "BE", "variable": "VISITDY", "label": "Planned Study Day of Visit", "variable_type": "N", "length": "8", "core": "Perm", "role": "Timing", "format_field": "", "key": "", "seq": "19", "origin": "Assigned", "dataset_level": "Corporate", "cdisc_notes": "Planned study day of VISIT. Should be an integer.", "az_notes": ""}, {"dataset": "BE", "variable": "BEDTC", "label": "Date/Time of Specimen Collection", "variable_type": "C", "length": "19", "core": "Exp", "role": "Timing", "format_field": "ISO 8601", "key": "", "seq": "20", "origin": "CRF", "dataset_level": "Corporate", "cdisc_notes": "Date and time of specimen collection.", "az_notes": ""}, {"dataset": "BE", "variable": "BESTDTC", "label": "Start Date/Time of Biospecimen Event", "variable_type": "C", "length": "19", "core": "Exp", "role": "Timing", "format_field": "ISO 8601", "key": "3", "seq": "21", "origin": "CRF", "dataset_level": "Corporate", "cdisc_notes": "Start date/time of the event.", "az_notes": ""}, {"dataset": "BE", "variable": "BEENDTC", "label": "End Date/Time of Biospecimen Event", "variable_type": "C", "length": "19", "core": "Exp", "role": "Timing", "format_field": "ISO 8601", "key": "", "seq": "22", "origin": "CRF", "dataset_level": "Corporate", "cdisc_notes": "End date/time of the event.", "az_notes": ""}, {"dataset": "BE", "variable": "BESTDY", "label": "Study Day of Start of Biospecimen Event", "variable_type": "N", "length": "8", "core": "Perm", "role": "Timing", "format_field": "", "key": "", "seq": "23", "origin": "Derived", "dataset_level": "Corporate", "cdisc_notes": "Actual study day of start of observation expressed in integer days relative to the sponsor-defined RFSTDTC in Demographics.", "az_notes": ""}, {"dataset": "BE", "variable": "BEENDY", "label": "Study Day of End of Biospecimen Event", "variable_type": "N", "length": "8", "core": "Perm", "role": "Timing", "format_field": "", "key": "", "seq": "24", "origin": "Derived", "dataset_level": "Corporate", "cdisc_notes": "Actual study day of end of observation expressed in integer days relative to the sponsor-defined RFSTDTC in Demographics.", "az_notes": ""}, {"dataset": "BE", "variable": "BEDUR", "label": "Duration of Biospecimen Event", "variable_type": "C", "length": "40", "core": "Perm", "role": "Timing", "format_field": "", "key": "", "seq": "25", "origin": "CRF", "dataset_level": "Corporate", "cdisc_notes": "Collected duration and unit of a biospecimen event. Used only if collected on the CRF and not derived from start and end date/times. Example: P1DT2H (for 1 day, 2 hours).", "az_notes": ""}, {"dataset": "BS", "variable": "STUDYID", "label": "Study Identifier", "variable_type": "C", "length": "21", "core": "Req", "role": "Identifier", "format_field": "", "key": "1", "seq": "1", "origin": "Protocol", "dataset_level": "Corporate", "cdisc_notes": "Unique identifier for a study.", "az_notes": ""}, {"dataset": "BS", "variable": "DOMAIN", "label": "Domain Abbreviation", "variable_type": "C", "length": "8", "core": "Req", "role": "Identifier", "format_field": "(DOMAIN)", "key": "", "seq": "2", "origin": "Assigned", "dataset_level": "Corporate", "cdisc_notes": "Two-character abbreviation for the domain.", "az_notes": ""}, {"dataset": "BS", "variable": "USUBJID", "label": "Unique Subject Identifier", "variable_type": "C", "length": "30", "core": "Req", "role": "Identifier", "format_field": "", "key": "2", "seq": "3", "origin": "Derived", "dataset_level": "Corporate", "cdisc_notes": "Identifier used to uniquely identify a subject across all studies for all applications or submissions involving the product.", "az_notes": ""}, {"dataset": "BS", "variable": "SPDEVID", "label": "Sponsor Device Identifier", "variable_type": "C", "length": "40", "core": "Perm", "role": "Identifier", "format_field": "", "key": "", "seq": "4", "origin": "CRF", "dataset_level": "Corporate", "cdisc_notes": "Sponsor-defined identifier for a device.", "az_notes": ""}, {"dataset": "BS", "variable": "BSSEQ", "label": "Sequence Number", "variable_type": "N", "length": "8", "core": "Req", "role": "Identifier", "format_field": "", "key": "", "seq": "5", "origin": "Derived", "dataset_level": "Corporate", "cdisc_notes": "Sequence number given to ensure uniqueness within a dataset for a subject. May be any valid number (including decimals) and does not have to start at 1.", "az_notes": ""}, {"dataset": "BS", "variable": "BSGRPID", "label": "Group ID", "variable_type": "C", "length": "40", "core": "Perm", "role": "Identifier", "format_field": "", "key": "", "seq": "6", "origin": "Derived", "dataset_level": "Corporate", "cdisc_notes": "Optional group identifier, used to link together a block of related records within a subject in a domain.", "az_notes": ""}, {"dataset": "BS", "variable": "BSREFID", "label": "Reference ID", "variable_type": "C", "length": "40", "core": "Exp", "role": "Identifier", "format_field": "", "key": "", "seq": "7", "origin": "", "dataset_level": "Corporate", "cdisc_notes": "Internal or external identifier such as lab specimen ID.", "az_notes": ""}, {"dataset": "BS", "variable": "BSSPID", "label": "Sponsor-Defined Identifier", "variable_type": "C", "length": "40", "core": "Perm", "role": "Identifier", "format_field": "", "key": "", "seq": "8", "origin": "", "dataset_level": "Corporate", "cdisc_notes": "Sponsor-defined identifier.", "az_notes": ""}, {"dataset": "BS", "variable": "BSTESTCD", "label": "Biospecimen Test Short Name", "variable_type": "C", "length": "8", "core": "Req", "role": "Topic", "format_field": "(BSTESTCD)", "key": "5", "seq": "9", "origin": "CRF", "dataset_level": "Corporate", "cdisc_notes": "Short character value for BSTEST used as a column name when converting a dataset from a vertical format to a horizontal format. The short value can be up to 8 characters. Examples: VOLUME, RIN.", "az_notes": ""}, {"dataset": "BS", "variable": "BSTEST", "label": "Biospecimen Test Name", "variable_type": "C", "length": "40", "core": "Req", "role": "Synonym Qualifier", "format_field": "(BSTEST)", "key": "", "seq": "10", "origin": "Assigned", "dataset_level": "Corporate", "cdisc_notes": "Long name for BSTESTCD. Examples: Volume, RNA Integrity Number.", "az_notes": ""}, {"dataset": "BS", "variable": "BSCAT", "label": "Category for Biospecimen Test", "variable_type": "C", "length": "40", "core": "Exp", "role": "Grouping Qualifier", "format_field": "", "key": "4", "seq": "11", "origin": "Assigned", "dataset_level": "Corporate", "cdisc_notes": "Used to define a category of topic-variable values. Example: MEASUREMENT, QUALITY.", "az_notes": ""}, {"dataset": "BS", "variable": "BSSCAT", "label": "Subcategory for Biospecimen Test", "variable_type": "C", "length": "40", "core": "Perm", "role": "Grouping Qualifier", "format_field": "", "key": "", "seq": "12", "origin": "Assigned", "dataset_level": "Corporate", "cdisc_notes": "Used to define a further categorization of BSCAT values.", "az_notes": ""}, {"dataset": "BS", "variable": "BSORRES", "label": "Result or Finding in Original Units", "variable_type": "C", "length": "200", "core": "Exp", "role": "Result Qualifier", "format_field": "", "key": "", "seq": "13", "origin": "CRF", "dataset_level": "Corporate", "cdisc_notes": "Result of the measurement or finding as originally received or collected.", "az_notes": ""}, {"dataset": "BS", "variable": "BSORRESU", "label": "Original Units", "variable_type": "C", "length": "40", "core": "Exp", "role": "Variable Qualifier", "format_field": "(UNIT)", "key": "", "seq": "14", "origin": "CRF", "dataset_level": "Corporate", "cdisc_notes": "Unit for BSORRES. Examples: mg, mL.", "az_notes": ""}, {"dataset": "BS", "variable": "BSSTRESC", "label": "Character Result/Finding in Std Format", "variable_type": "C", "length": "200", "core": "Exp", "role": "Result Qualifier", "format_field": "", "key": "", "seq": "15", "origin": "", "dataset_level": "Corporate", "cdisc_notes": "Contains the result value for all findings, copied or derived from BSORRES in a standard format or standard units. BSSTRESC should store all results or findings in character format; if results are numeric, they should also be stored in numeric format in BSSTRESN.", "az_notes": ""}, {"dataset": "BS", "variable": "BSSTRESN", "label": "Numeric Result/Finding in Standard Units", "variable_type": "N", "length": "8", "core": "Exp", "role": "Result Qualifier", "format_field": "", "key": "", "seq": "16", "origin": "", "dataset_level": "Corporate", "cdisc_notes": "Used for continuous or numeric results or findings in standard format; copied in numeric format from BSSTRESC. BSSTRESN should store all numeric test results or findings.", "az_notes": ""}, {"dataset": "BS", "variable": "BSSTRESU", "label": "Standard Units", "variable_type": "C", "length": "40", "core": "Exp", "role": "Variable Qualifier", "format_field": "(UNIT)", "key": "", "seq": "17", "origin": "", "dataset_level": "Corporate", "cdisc_notes": "Standardized unit used for BSSTRESC and BSSTRESN.", "az_notes": ""}, {"dataset": "BS", "variable": "BSSTAT", "label": "Completion Status", "variable_type": "C", "length": "40", "core": "Perm", "role": "Record Qualifier", "format_field": "(ND)", "key": "", "seq": "18", "origin": "Derived", "dataset_level": "Corporate", "cdisc_notes": "Used to indicate that a test was not done, or was attempted but did not generate a result. Should be null or have a value of NOT DONE.", "az_notes": ""}, {"dataset": "BS", "variable": "BSREASND", "label": "Reason Test Not Done", "variable_type": "C", "length": "200", "core": "Perm", "role": "Record Qualifier", "format_field": "", "key": "", "seq": "19", "origin": "CRF", "dataset_level": "Corporate", "cdisc_notes": "Reason not done. Used in conjunction with BSSTAT when value is NOT DONE.", "az_notes": ""}, {"dataset": "BS", "variable": "BSNAM", "label": "Vendor Name", "variable_type": "C", "length": "200", "core": "Perm", "role": "Record Qualifier", "format_field": "", "key": "", "seq": "20", "origin": "CRF", "dataset_level": "Corporate", "cdisc_notes": "Name or identifier of the vendor (e.g., laboratory) that provided the test results.", "az_notes": ""}, {"dataset": "BS", "variable": "BSSPEC", "label": "Specimen Type", "variable_type": "C", "length": "200", "core": "Perm", "role": "Record Qualifier", "format_field": "", "key": "", "seq": "21", "origin": "CRF", "dataset_level": "Corporate", "cdisc_notes": "Defines the type of specimen used for a measurement. Examples: SERUM, PLASMA, URINE, SOFT TISSUE.", "az_notes": ""}, {"dataset": "BS", "variable": "BSANTREG", "label": "Anatomical Region of Specimen", "variable_type": "C", "length": "40", "core": "Perm", "role": "Variable Qualifier", "format_field": "", "key": "", "seq": "22", "origin": "CRF", "dataset_level": "Corporate", "cdisc_notes": "Defines the specific anatomical or biological region of a tissue, organ specimen or the region from which the specimen is obtained, as defined in the protocol, such as a section or part of what is described in the BSSPEC variable. Examples: CORTEX, MEDULLA, MUCOSA.", "az_notes": ""}, {"dataset": "BS", "variable": "BSSPCCND", "label": "Specimen Condition", "variable_type": "C", "length": "200", "core": "Perm", "role": "Record Qualifier", "format_field": "(SPECCOND)", "key": "", "seq": "23", "origin": "CRF", "dataset_level": "Corporate", "cdisc_notes": "Defines the condition of the specimen. Examples: HEMOLYZED, ICTERIC, LIPEMIC.", "az_notes": ""}, {"dataset": "BS", "variable": "BSMETHOD", "label": "Method of Test or Examination", "variable_type": "C", "length": "200", "core": "Perm", "role": "Record Qualifier", "format_field": "(METHOD)", "key": "", "seq": "24", "origin": "CRF", "dataset_level": "Corporate", "cdisc_notes": "Method of the test or examination. Examples: SPECTROPHOTOMETRY, ELECTROPHORESIS.", "az_notes": ""}, {"dataset": "BS", "variable": "BSLOBXFL", "label": "Last Observation Before Exposure Flag", "variable_type": "C", "length": "1", "core": "Exp", "role": "Record Qualifier", "format_field": "(NY)", "key": "", "seq": "25", "origin": "Derived", "dataset_level": "Corporate", "cdisc_notes": "Operationally-derived indicator used to identify the last non-missing value prior to RFXSTDTC. The value should be \"Y\" or null.", "az_notes": ""}, {"dataset": "BS", "variable": "BSBLFL", "label": "Baseline Flag", "variable_type": "C", "length": "1", "core": "Perm", "role": "Record Qualifier", "format_field": "(NY)", "key": "", "seq": "26", "origin": "Derived", "dataset_level": "Corporate", "cdisc_notes": "Indicator used to identify a baseline value.", "az_notes": ""}, {"dataset": "BS", "variable": "VISITNUM", "label": "Visit Number", "variable_type": "N", "length": "8", "core": "Exp", "role": "Timing", "format_field": "", "key": "", "seq": "27", "origin": "Derived", "dataset_level": "Corporate", "cdisc_notes": "Clinical encounter number. Numeric version of VISIT, used for sorting.", "az_notes": ""}, {"dataset": "BS", "variable": "VISIT", "label": "Visit Name", "variable_type": "C", "length": "40", "core": "Perm", "role": "Timing", "format_field": "", "key": "", "seq": "28", "origin": "Protocol", "dataset_level": "Corporate", "cdisc_notes": "Protocol-defined description of clinical encounter.", "az_notes": ""}, {"dataset": "BS", "variable": "VISITDY", "label": "Planned Study Day of Visit", "variable_type": "N", "length": "8", "core": "Perm", "role": "Timing", "format_field": "", "key": "", "seq": "29", "origin": "Assigned", "dataset_level": "Corporate", "cdisc_notes": "Planned study day of VISIT. Should be an integer.", "az_notes": ""}, {"dataset": "BS", "variable": "EPOCH", "label": "Epoch", "variable_type": "C", "length": "40", "core": "Perm", "role": "Timing", "format_field": "(EPOCH)", "key": "", "seq": "30", "origin": "Protocol", "dataset_level": "Corporate", "cdisc_notes": "Epoch associated with the date/time at which the assessment was made.", "az_notes": ""}, {"dataset": "BS", "variable": "BSDTC", "label": "Date/Time of Specimen Collection", "variable_type": "C", "length": "19", "core": "Exp", "role": "Timing", "format_field": "ISO 8601", "key": "3", "seq": "31", "origin": "CRF", "dataset_level": "Corporate", "cdisc_notes": "Date and time of specimen collection.", "az_notes": ""}, {"dataset": "BS", "variable": "BSDY", "label": "Study Day of Specimen Collection", "variable_type": "N", "length": "8", "core": "Perm", "role": "Timing", "format_field": "", "key": "", "seq": "32", "origin": "Derived", "dataset_level": "Corporate", "cdisc_notes": "Study day of specimen collection relative to the sponsor-defined RFSTDTC.", "az_notes": ""}, {"dataset": "BS", "variable": "BSTPT", "label": "Planned Time Point Name", "variable_type": "C", "length": "40", "core": "Perm", "role": "Timing", "format_field": "", "key": "", "seq": "33", "origin": "Assigned", "dataset_level": "Corporate", "cdisc_notes": "Text description of time when a measurement or observation should be taken as defined in the protocol. This may be represented as an elapsed time relative to a fixed reference point, such as time of last dose. See BSTPTNUM and BSTPTREF.", "az_notes": ""}, {"dataset": "BS", "variable": "BSTPTNUM", "label": "Planned Time Point Number", "variable_type": "N", "length": "8", "core": "Perm", "role": "Timing", "format_field": "", "key": "", "seq": "34", "origin": "Assigned", "dataset_level": "Corporate", "cdisc_notes": "Numerical version of BSTPT used in sorting.", "az_notes": ""}, {"dataset": "BS", "variable": "BSELTM", "label": "Planned Elapsed Time from Time Point Ref", "variable_type": "C", "length": "40", "core": "Perm", "role": "Timing", "format_field": "ISO 8601", "key": "", "seq": "35", "origin": "Derived", "dataset_level": "Corporate", "cdisc_notes": "Elapsed time relative to a planned fixed reference (BSTPTREF). This variable is useful where there are repetitive measures. Not a clock time or a date time variable, but an interval, represented as ISO duration.", "az_notes": ""}, {"dataset": "BS", "variable": "BSSTPTREF", "label": "Time Point Reference", "variable_type": "C", "length": "40", "core": "Perm", "role": "Timing", "format_field": "", "key": "", "seq": "36", "origin": "Assigned", "dataset_level": "Corporate", "cdisc_notes": "Name of the fixed reference point referred to by BSELTM, BSTPTNUM, and BSTPT. Examples: PREVIOUS DOSE, PREVIOUS MEAL.", "az_notes": ""}, {"dataset": "BS", "variable": "BSRFTDTC", "label": "Date/Time of Reference Time Point", "variable_type": "C", "length": "19", "core": "Perm", "role": "Timing", "format_field": "ISO 8601", "key": "", "seq": "37", "origin": "Assigned", "dataset_level": "Corporate", "cdisc_notes": "Date/time for a fixed reference time point defined by BSTPTREF.", "az_notes": ""}, {"dataset": "CE", "variable": "STUDYID", "label": "Study Identifier", "variable_type": "C", "length": "21", "core": "Req", "role": "Identifier", "format_field": "", "key": "1", "seq": "1", "origin": "Protocol", "dataset_level": "Corporate", "cdisc_notes": "Unique identifier for a study.", "az_notes": ""}, {"dataset": "CE", "variable": "DOMAIN", "label": "Domain Abbreviation", "variable_type": "C", "length": "8", "core": "Req", "role": "Identifier", "format_field": "(DOMAIN)", "key": "", "seq": "2", "origin": "Assigned", "dataset_level": "Corporate", "cdisc_notes": "Two-character abbreviation for the domain.", "az_notes": ""}, {"dataset": "CE", "variable": "USUBJID", "label": "Unique Subject Identifier", "variable_type": "C", "length": "30", "core": "Req", "role": "Identifier", "format_field": "", "key": "2", "seq": "3", "origin": "Derived", "dataset_level": "Corporate", "cdisc_notes": "Identifier used to uniquely identify a subject across all studies for all applications or submissions involving the product.", "az_notes": ""}, {"dataset": "CE", "variable": "CESEQ", "label": "Sequence Number", "variable_type": "N", "length": "8", "core": "Req", "role": "Identifier", "format_field": "", "key": "", "seq": "4", "origin": "Derived", "dataset_level": "Corporate", "cdisc_notes": "Sequence number given to ensure uniqueness of subject records within a domain. May be any valid number.", "az_notes": ""}, {"dataset": "CE", "variable": "CEGRPID", "label": "Group ID", "variable_type": "C", "length": "40", "core": "Perm", "role": "Identifier", "format_field": "", "key": "", "seq": "5", "origin": "Derived", "dataset_level": "Corporate", "cdisc_notes": "Used to link together a block of related records for a subject within a domain.", "az_notes": ""}, {"dataset": "CE", "variable": "CEREFID", "label": "Reference ID", "variable_type": "C", "length": "40", "core": "Perm", "role": "Identifier", "format_field": "", "key": "", "seq": "6", "origin": "CRF", "dataset_level": "Corporate", "cdisc_notes": "Internal or external identifier (e.g., lab specimen ID, UUID for an ECG waveform or medical image).", "az_notes": ""}, {"dataset": "CE", "variable": "CESPID", "label": "Sponsor-Defined Identifier", "variable_type": "C", "length": "40", "core": "Perm", "role": "Identifier", "format_field": "", "key": "", "seq": "7", "origin": "Assigned", "dataset_level": "Corporate", "cdisc_notes": "Sponsor-defined identifier.", "az_notes": ""}, {"dataset": "CE", "variable": "CELNKID", "label": "Link ID", "variable_type": "C", "length": "40", "core": "Perm", "role": "Identifier", "format_field": "", "key": "", "seq": "8", "origin": "Derived", "dataset_level": "Corporate", "cdisc_notes": "Identifier used to link related records across domains. This may be a one-to-one or a one-to-many relationship. For example, a single tumor may have multiple measurements/assessments performed at each study visit.", "az_notes": ""}, {"dataset": "CE", "variable": "CELNKGRP", "label": "Link Group ID", "variable_type": "C", "length": "40", "core": "Perm", "role": "Identifier", "format_field": "", "key": "", "seq": "9", "origin": "Derived", "dataset_level": "Corporate", "cdisc_notes": "Identifier used to link related records across domains. This will usually be a many-to-one relationship. For example, multiple tumor measurements/assessments will contribute to a single response to therapy determination record.", "az_notes": ""}, {"dataset": "CE", "variable": "CETERM", "label": "Reported Term for the Clinical Event", "variable_type": "C", "length": "200", "core": "Req", "role": "Topic", "format_field": "", "key": "5", "seq": "10", "origin": "CRF", "dataset_level": "Corporate", "cdisc_notes": "Term for the medical condition or event. Most likely preprinted on CRF.", "az_notes": ""}, {"dataset": "CE", "variable": "CEMODIFY", "label": "Modified Reported Term", "variable_type": "C", "length": "200", "core": "Perm", "role": "Synonym Qualifier", "format_field": "", "key": "", "seq": "11", "origin": "Assigned", "dataset_level": "Corporate", "cdisc_notes": "If the value for --TERM is modified for coding purposes, then the modified text is placed here.", "az_notes": ""}, {"dataset": "CE", "variable": "CELLT", "label": "Lowest Level Term", "variable_type": "C", "length": "200", "core": "Perm", "role": "Variable Qualifier", "format_field": "MedDRA", "key": "", "seq": "12", "origin": "Assigned", "dataset_level": "Corporate", "cdisc_notes": "MedDRA Lowest Level Term.", "az_notes": ""}, {"dataset": "CE", "variable": "CELLTCD", "label": "Lowest Level Term Code", "variable_type": "N", "length": "8", "core": "Perm", "role": "Variable Qualifier", "format_field": "MedDRA", "key": "", "seq": "13", "origin": "Assigned", "dataset_level": "Corporate", "cdisc_notes": "MedDRA Lowest Level Term code.", "az_notes": ""}, {"dataset": "CE", "variable": "CEDECOD", "label": "Dictionary-Derived Term", "variable_type": "C", "length": "200", "core": "Perm", "role": "Synonym Qualifier", "format_field": "", "key": "", "seq": "14", "origin": "Assigned", "dataset_level": "Corporate", "cdisc_notes": "Controlled terminology for the name of the clinical event. The sponsor is expected to provide the dictionary name and version used to map the terms utilizing the external codelist element in the Define-XML document.", "az_notes": ""}, {"dataset": "CE", "variable": "CEPTCD", "label": "Preferred Term Code", "variable_type": "N", "length": "8", "core": "Perm", "role": "Variable Qualifier", "format_field": "MedDRA", "key": "", "seq": "15", "origin": "Assigned", "dataset_level": "Corporate", "cdisc_notes": "MedDRA Preferred Term code.", "az_notes": ""}, {"dataset": "CE", "variable": "CEHLT", "label": "High Level Term", "variable_type": "C", "length": "200", "core": "Perm", "role": "Variable Qualifier", "format_field": "MedDRA", "key": "", "seq": "16", "origin": "Assigned", "dataset_level": "Corporate", "cdisc_notes": "MedDRA High Level Term from the primary path.", "az_notes": ""}, {"dataset": "CE", "variable": "CEHLTCD", "label": "High Level Term Code", "variable_type": "N", "length": "8", "core": "Perm", "role": "Variable Qualifier", "format_field": "MedDRA", "key": "", "seq": "17", "origin": "Assigned", "dataset_level": "Corporate", "cdisc_notes": "MedDRA High Level Term code from the primary path.", "az_notes": ""}, {"dataset": "CE", "variable": "CEHLGT", "label": "High Level Group Term", "variable_type": "C", "length": "200", "core": "Perm", "role": "Variable Qualifier", "format_field": "MedDRA", "key": "", "seq": "18", "origin": "Assigned", "dataset_level": "Corporate", "cdisc_notes": "MedDRA High Level Group Term from the primary path.", "az_notes": ""}, {"dataset": "CE", "variable": "CEHLGTCD", "label": "High Level Group Term Code", "variable_type": "N", "length": "8", "core": "Perm", "role": "Variable Qualifier", "format_field": "MedDRA", "key": "", "seq": "19", "origin": "Assigned", "dataset_level": "Corporate", "cdisc_notes": "MedDRA High Level Group Term code from the primary path.", "az_notes": ""}, {"dataset": "CE", "variable": "CECAT", "label": "Category for the Clinical Event", "variable_type": "C", "length": "40", "core": "Perm", "role": "Grouping Qualifier", "format_field": "", "key": "4", "seq": "20", "origin": "Assigned", "dataset_level": "Corporate", "cdisc_notes": "Used to define a category of related records.", "az_notes": ""}, {"dataset": "CE", "variable": "CESCAT", "label": "Subcategory for the Clinical Event", "variable_type": "C", "length": "40", "core": "Perm", "role": "Grouping Qualifier", "format_field": "", "key": "", "seq": "21", "origin": "Assigned", "dataset_level": "Corporate", "cdisc_notes": "A further categorization of the condition or event.", "az_notes": ""}, {"dataset": "CE", "variable": "CEPRESP", "label": "Clinical Event Pre-specified", "variable_type": "C", "length": "1", "core": "Perm", "role": "Variable Qualifier", "format_field": "(NY)", "key": "", "seq": "22", "origin": "Assigned", "dataset_level": "Corporate", "cdisc_notes": "Used to indicate whether the event in CETERM was prespecified. Value is \"Y\" for prespecified events and null for spontaneously reported events.", "az_notes": ""}, {"dataset": "CE", "variable": "CEOCCUR", "label": "Clinical Event Occurrence", "variable_type": "C", "length": "1", "core": "Perm", "role": "Record Qualifier", "format_field": "(NY)", "key": "", "seq": "23", "origin": "CRF", "dataset_level": "Corporate", "cdisc_notes": "Used when the occurrence of specific events is solicited, to indicate whether or not a clinical event occurred. Values are null for spontaneously reported events.", "az_notes": ""}, {"dataset": "CE", "variable": "CESTAT", "label": "Completion Status", "variable_type": "C", "length": "8", "core": "Perm", "role": "Record Qualifier", "format_field": "(ND)", "key": "", "seq": "24", "origin": "Derived", "dataset_level": "Corporate", "cdisc_notes": "The status indicates that a question from a prespecified list was not answered.", "az_notes": ""}, {"dataset": "CE", "variable": "CEREASND", "label": "Reason Clinical Event Not Collected", "variable_type": "C", "length": "200", "core": "Perm", "role": "Record Qualifier", "format_field": "", "key": "", "seq": "25", "origin": "CRF", "dataset_level": "Corporate", "cdisc_notes": "Describes the reason clinical event data was not collected. Used in conjunction with CESTAT when value is \"NOT DONE\".", "az_notes": ""}, {"dataset": "CE", "variable": "CEBODSYS", "label": "Body System or Organ Class", "variable_type": "C", "length": "200", "core": "Perm", "role": "Record Qualifier", "format_field": "", "key": "", "seq": "26", "origin": "Assigned", "dataset_level": "Corporate", "cdisc_notes": "Dictionary-derived. Body system or organ class that is involved in an event or measurement from a standard hierarchy (e.g., MedDRA). When using a multi-axial dictionary such as MedDRA, this should contain the SOC used for the sponsor's analyses and summary tables, which may not necessarily be the primary SOC.", "az_notes": ""}, {"dataset": "CE", "variable": "CEBDSYCD", "label": "Body System or Organ Class Code", "variable_type": "N", "length": "8", "core": "Perm", "role": "Variable Qualifier", "format_field": "MedDRA", "key": "", "seq": "27", "origin": "Assigned", "dataset_level": "Corporate", "cdisc_notes": "MedDRA System Organ Class code corresponding to --BODSYS assigned for analysis.", "az_notes": ""}, {"dataset": "CE", "variable": "CESOC", "label": "Primary System Organ Class", "variable_type": "C", "length": "200", "core": "Perm", "role": "Variable Qualifier", "format_field": "MedDRA", "key": "", "seq": "28", "origin": "Assigned", "dataset_level": "Corporate", "cdisc_notes": "MedDRA primary System Organ Class associated with the event.", "az_notes": ""}, {"dataset": "CE", "variable": "CESOCCD", "label": "Primary System Organ Class Code", "variable_type": "N", "length": "8", "core": "Perm", "role": "Variable Qualifier", "format_field": "MedDRA", "key": "", "seq": "29", "origin": "Assigned", "dataset_level": "Corporate", "cdisc_notes": "MedDRA primary System Organ Class code.", "az_notes": ""}, {"dataset": "CE", "variable": "CELOC", "label": "Location of Event", "variable_type": "C", "length": "40", "core": "Perm", "role": "Record Qualifier", "format_field": "(LOC)", "key": "", "seq": "30", "origin": "CRF", "dataset_level": "Corporate", "cdisc_notes": "Describes anatomical location relevant for the event. Example: \"ARM\" for skin rash.", "az_notes": ""}, {"dataset": "CE", "variable": "CELAT", "label": "Laterality", "variable_type": "C", "length": "40", "core": "Perm", "role": "Variable Qualifier", "format_field": "(LAT)", "key": "", "seq": "31", "origin": "CRF", "dataset_level": "Corporate", "cdisc_notes": "", "az_notes": ""}, {"dataset": "CE", "variable": "CESEV", "label": "Severity/Intensity", "variable_type": "C", "length": "20", "core": "Perm", "role": "Record Qualifier", "format_field": "(SEVRS)", "key": "", "seq": "32", "origin": "CRF", "dataset_level": "Corporate", "cdisc_notes": "The severity or intensity of the event. Examples: \"MILD\", \"MODERATE\", \"SEVERE\".", "az_notes": ""}, {"dataset": "CE", "variable": "CEREL", "label": "Causality", "variable_type": "C", "length": "200", "core": "Perm", "role": "Record Qualifier", "format_field": "", "key": "", "seq": "33", "origin": "CRF", "dataset_level": "Corporate", "cdisc_notes": "Records the investigator's opinion as to the causality of the event to the treatment. ICH E2A and E2B examples include \"NOT RELATED\", \"UNLIKELY RELATED\", \"POSSIBLY RELATED\", \"RELATED\". Controlled Terminology may be defined in the future. Check with regulatory authority for population of this variable.", "az_notes": ""}, {"dataset": "CE", "variable": "CEPATT", "label": "Pattern of Event", "variable_type": "C", "length": "40", "core": "Perm", "role": "Record Qualifier", "format_field": "(CEPATT)", "key": "", "seq": "34", "origin": "CRF", "dataset_level": "Corporate", "cdisc_notes": "Used to indicate the pattern of the event over time. Examples: \"INTERMITTENT\", \"CONTINUOUS\", \"SINGLE EVENT\".", "az_notes": ""}, {"dataset": "CE", "variable": "CEOUT", "label": "Outcome of Event", "variable_type": "C", "length": "200", "core": "Perm", "role": "Record Qualifier", "format_field": "(OUT)", "key": "", "seq": "35", "origin": "CRF", "dataset_level": "Corporate", "cdisc_notes": "Description of the outcome of an event. Examples: \"RECOVERED/RESOLVED\", \"FATAL\".", "az_notes": ""}, {"dataset": "CE", "variable": "CECONTRT", "label": "Concomitant or Additional Trtmnt Given", "variable_type": "C", "length": "1", "core": "Perm", "role": "Record Qualifier", "format_field": "(NY)", "key": "", "seq": "36", "origin": "CRF", "dataset_level": "Corporate", "cdisc_notes": "Was another treatment given because of the occurrence of the event? Valid values are \"Y\", \"N\", and null.", "az_notes": ""}, {"dataset": "CE", "variable": "CETOXGR", "label": "Standard Toxicity Grade", "variable_type": "C", "length": "1", "core": "Perm", "role": "Record Qualifier", "format_field": "", "key": "", "seq": "37", "origin": "CRF", "dataset_level": "Corporate", "cdisc_notes": "Toxicity grade according to a standard toxicity scale (e.g., Common Terminology Criteria for Adverse Events (CTCAE) v3.0). Sponsor should specify name of the scale and version used in the metadata. If value is from a numeric scale, represent only the number (e.g., \"2\", not \"Grade 2\").", "az_notes": ""}, {"dataset": "CE", "variable": "VISITNUM", "label": "Visit Number", "variable_type": "N", "length": "8", "core": "Perm", "role": "Timing", "format_field": "", "key": "", "seq": "38", "origin": "Derived", "dataset_level": "Corporate", "cdisc_notes": "1. Clinical encounter number. 2. Numeric version of VISIT, used for sorting.", "az_notes": ""}, {"dataset": "CE", "variable": "VISIT", "label": "Visit Name", "variable_type": "C", "length": "40", "core": "Perm", "role": "Timing", "format_field": "", "key": "", "seq": "39", "origin": "Protocol", "dataset_level": "Corporate", "cdisc_notes": "1. Protocol-defined description of clinical encounter. 2. May be used in addition to VISITNUM and/or VISITDY.", "az_notes": ""}, {"dataset": "CE", "variable": "VISITDY", "label": "Planned Study Day of Visit", "variable_type": "N", "length": "8", "core": "Perm", "role": "Timing", "format_field": "", "key": "", "seq": "40", "origin": "Assigned", "dataset_level": "Corporate", "cdisc_notes": "Planned study day of VISIT based upon RFSTDTC in Demographics. Should be an integer.", "az_notes": ""}, {"dataset": "CE", "variable": "TAETORD", "label": "Planned Order of Element within Arm", "variable_type": "N", "length": "8", "core": "Perm", "role": "Timing", "format_field": "", "key": "", "seq": "41", "origin": "Protocol", "dataset_level": "Corporate", "cdisc_notes": "Number that gives the planned order of the element within the arm for the element in which the clinical event started.", "az_notes": ""}, {"dataset": "CE", "variable": "EPOCH", "label": "Epoch", "variable_type": "C", "length": "40", "core": "Perm", "role": "Timing", "format_field": "(EPOCH)", "key": "", "seq": "42", "origin": "Protocol", "dataset_level": "Corporate", "cdisc_notes": "Epoch associated with the start date/time of the clinical event.", "az_notes": ""}, {"dataset": "CE", "variable": "CEDTC", "label": "Date/Time of Event Collection", "variable_type": "C", "length": "19", "core": "Perm", "role": "Timing", "format_field": "ISO 8601", "key": "", "seq": "43", "origin": "CRF", "dataset_level": "Corporate", "cdisc_notes": "Collection date and time for the clinical event observation represented in ISO 8601 character format.", "az_notes": ""}, {"dataset": "CE", "variable": "CESTDTC", "label": "Start Date/Time of Clinical Event", "variable_type": "C", "length": "19", "core": "Perm", "role": "Timing", "format_field": "ISO 8601", "key": "3", "seq": "44", "origin": "CRF", "dataset_level": "Corporate", "cdisc_notes": "Start date/time of the clinical event represented in ISO 8601 character format.", "az_notes": ""}, {"dataset": "CE", "variable": "CEENDTC", "label": "End Date/Time of Clinical Event", "variable_type": "C", "length": "19", "core": "Perm", "role": "Timing", "format_field": "ISO 8601", "key": "", "seq": "45", "origin": "CRF", "dataset_level": "Corporate", "cdisc_notes": "End date/time of the clinical event, represented in ISO 8601 character format.", "az_notes": ""}, {"dataset": "CE", "variable": "CEDY", "label": "Study Day of Event Collection", "variable_type": "N", "length": "8", "core": "Perm", "role": "Timing", "format_field": "", "key": "", "seq": "46", "origin": "Derived", "dataset_level": "Corporate", "cdisc_notes": "Study day of clinical event collection, measured as integer days. Algorithm for calculations must be relative to the sponsor-defined RFSTDTC variable in Demographics. This formula should be consistent across the submission.", "az_notes": ""}, {"dataset": "CE", "variable": "CESTDY", "label": "Study Day of Start of Event", "variable_type": "N", "length": "8", "core": "Perm", "role": "Timing", "format_field": "", "key": "", "seq": "47", "origin": "Derived", "dataset_level": "Corporate", "cdisc_notes": "Actual study day of start of the clinical event expressed in integer days relative to the sponsor-defined RFSTDTC in Demographics.", "az_notes": ""}, {"dataset": "CE", "variable": "CEENDY", "label": "Study Day of End of Event", "variable_type": "N", "length": "8", "core": "Perm", "role": "Timing", "format_field": "", "key": "", "seq": "48", "origin": "Derived", "dataset_level": "Corporate", "cdisc_notes": "Actual study day of end of the clinical event expressed in integer days relative to the sponsor-defined RFSTDTC in Demographics.", "az_notes": ""}, {"dataset": "CE", "variable": "CEDUR", "label": "Collected Duration", "variable_type": "C", "length": "40", "core": "Perm", "role": "Timing", "format_field": "ISO 8601", "key": "", "seq": "49", "origin": "CRF", "dataset_level": "Corporate", "cdisc_notes": "Collected duration of an event, intervention, or finding. Used only if collected on the CRF and not derived.", "az_notes": ""}, {"dataset": "CE", "variable": "CESTRF", "label": "Start Relative to Reference Period", "variable_type": "C", "length": "40", "core": "Perm", "role": "Timing", "format_field": "(STENRF)", "key": "", "seq": "50", "origin": "", "dataset_level": "Corporate", "cdisc_notes": "Describes the start of the clinical event relative to the sponsor-defined reference period. The sponsor-defined reference period is a continuous period of time defined by a discrete starting point and a discrete ending point (represented by RFSTDTC and RFENDTC in Demographics). \\n Not all values of the codelist are allowable for this variable. See Section 4.4.7, Use of Relative Timing Variables.", "az_notes": ""}, {"dataset": "CE", "variable": "CEENRF", "label": "End Relative to Reference Period", "variable_type": "C", "length": "40", "core": "Perm", "role": "Timing", "format_field": "(STENRF)", "key": "", "seq": "51", "origin": "Assigned", "dataset_level": "Corporate", "cdisc_notes": "Describes the end of the event relative to the sponsor-defined reference period. The sponsor-defined reference period is a continuous period of time defined by a discrete starting point and a discrete ending point (represented by RFSTDTC and RFENDTC in Demographics). \\n Not all values of the codelist are allowable for this variable. See Section 4.4.7, Use of Relative Timing Variables.", "az_notes": ""}, {"dataset": "CE", "variable": "CEEVLINT", "label": "Evaluation Interval", "variable_type": "C", "length": "40", "core": "Perm", "role": "Timing", "format_field": "ISO 8601", "key": "", "seq": "52", "origin": "CRF", "dataset_level": "Corporate", "cdisc_notes": "Duration of interval associated with an observation such as a finding --TESTCD. Usually used with --DTC to describe an interval of this duration that ended at the time represented in --DTC. Example: \"-P2M\" to represent a period of the past 2 months as the evaluation interval for a question from a questionnaire.", "az_notes": ""}, {"dataset": "CE", "variable": "CEEVINTX", "label": "Evaluation Interval Text", "variable_type": "C", "length": "80", "core": "Perm", "role": "Timing", "format_field": "", "key": "", "seq": "53", "origin": "CRF", "dataset_level": "Corporate", "cdisc_notes": "", "az_notes": ""}, {"dataset": "CE", "variable": "CESTRTPT", "label": "Start Relative to Reference Time Point", "variable_type": "C", "length": "40", "core": "Perm", "role": "Timing", "format_field": "(STENRF)", "key": "", "seq": "54", "origin": "Assigned", "dataset_level": "Corporate", "cdisc_notes": "Identifies the start of the observation as being before or after the reference time point defined by variable CESTTPT. \\n Not all values of the codelist are allowable for this variable. See Section 4.4.7, Use of Relative Timing Variables.", "az_notes": ""}, {"dataset": "CE", "variable": "CESTTPT", "label": "Start Reference Time Point", "variable_type": "C", "length": "40", "core": "Perm", "role": "Timing", "format_field": "", "key": "", "seq": "55", "origin": "Assigned", "dataset_level": "Corporate", "cdisc_notes": "Description or date/time in ISO 8601 character format of the sponsor-defined reference point referred to by --STRTPT. Examples: \"2003-12-15\", \"VISIT 1\".", "az_notes": ""}, {"dataset": "CE", "variable": "CEENRTPT", "label": "End Relative to Reference Time Point", "variable_type": "C", "length": "40", "core": "Perm", "role": "Timing", "format_field": "(STENRF)", "key": "", "seq": "56", "origin": "Assigned", "dataset_level": "Corporate", "cdisc_notes": "Identifies the end of the observation as being before or after the sponsor-defined reference time point defined by variable CEENTPT. \\n Not all values of the codelist are allowable for this variable. See Section 4.4.7, Use of Relative Timing Variables.", "az_notes": ""}, {"dataset": "CE", "variable": "CEENTPT", "label": "End Reference Time Point", "variable_type": "C", "length": "40", "core": "Perm", "role": "Timing", "format_field": "", "key": "", "seq": "57", "origin": "", "dataset_level": "Corporate", "cdisc_notes": "Description or date/time in ISO 8601 character format of the reference point referred to by CEENRTPT. Examples: \"2003-12-25\", \"VISIT 2\".", "az_notes": ""}, {"dataset": "CE", "variable": "ADASSEVT", "label": "Associated Events", "variable_type": "C", "length": "8", "core": "Supp", "role": "", "format_field": "", "key": "", "seq": "58", "origin": "", "dataset_level": "Corporate", "cdisc_notes": "", "az_notes": ""}, {"dataset": "CE", "variable": "ADJACTFL", "label": "Adjudication AE Active Event Flag", "variable_type": "C", "length": "200", "core": "Supp", "role": "", "format_field": "(NY)", "key": "", "seq": "59", "origin": "", "dataset_level": "Corporate", "cdisc_notes": "", "az_notes": ""}, {"dataset": "CE", "variable": "ADJCYCLE", "label": "Cycle of Adjudication", "variable_type": "C", "length": "8", "core": "Supp", "role": "", "format_field": "", "key": "", "seq": "60", "origin": "", "dataset_level": "Corporate", "cdisc_notes": "", "az_notes": ""}, {"dataset": "CE", "variable": "ADJDUPEV", "label": "Duplicated Event Flag", "variable_type": "C", "length": "2", "core": "Supp", "role": "", "format_field": "", "key": "", "seq": "61", "origin": "", "dataset_level": "Corporate", "cdisc_notes": "", "az_notes": ""}, {"dataset": "CE", "variable": "ADJFCYFL", "label": "Final Adjudication Cycle Flag", "variable_type": "C", "length": "8", "core": "Supp", "role": "", "format_field": "", "key": "", "seq": "62", "origin": "", "dataset_level": "Corporate", "cdisc_notes": "", "az_notes": ""}, {"dataset": "CE", "variable": "ADJSIGN", "label": "Adjudicator e-Signature", "variable_type": "C", "length": "8", "core": "Supp", "role": "", "format_field": "", "key": "", "seq": "63", "origin": "", "dataset_level": "Corporate", "cdisc_notes": "", "az_notes": ""}, {"dataset": "CE", "variable": "ADJTYPE", "label": "Type of Adjudication", "variable_type": "C", "length": "8", "core": "Supp", "role": "", "format_field": "", "key": "", "seq": "64", "origin": "", "dataset_level": "Corporate", "cdisc_notes": "", "az_notes": ""}, {"dataset": "CE", "variable": "ADMDTC", "label": "Admission Date/Time", "variable_type": "C", "length": "19", "core": "Supp", "role": "", "format_field": "ISO 8601", "key": "", "seq": "65", "origin": "CRF", "dataset_level": "Corporate", "cdisc_notes": "", "az_notes": ""}, {"dataset": "CE", "variable": "BSOTH", "label": "Specify Other B Symptoms", "variable_type": "C", "length": "200", "core": "Supp", "role": "", "format_field": "", "key": "", "seq": "66", "origin": "", "dataset_level": "Corporate", "cdisc_notes": "", "az_notes": ""}, {"dataset": "CE", "variable": "CEDTH", "label": "Death Caused by Event", "variable_type": "C", "length": "8", "core": "Supp", "role": "", "format_field": "", "key": "", "seq": "67", "origin": "", "dataset_level": "Corporate", "cdisc_notes": "", "az_notes": ""}, {"dataset": "CE", "variable": "CEEVAL", "label": "Evaluator", "variable_type": "C", "length": "8", "core": "Supp", "role": "", "format_field": "", "key": "", "seq": "68", "origin": "", "dataset_level": "Corporate", "cdisc_notes": "", "az_notes": ""}, {"dataset": "CE", "variable": "CEEVALID", "label": "Evaluator Identifier", "variable_type": "C", "length": "8", "core": "Supp", "role": "", "format_field": "", "key": "", "seq": "69", "origin": "", "dataset_level": "Corporate", "cdisc_notes": "", "az_notes": ""}, {"dataset": "CE", "variable": "CELOCOTH", "label": "Other Location of Event", "variable_type": "C", "length": "200", "core": "Supp", "role": "", "format_field": "", "key": "", "seq": "70", "origin": "", "dataset_level": "Corporate", "cdisc_notes": "", "az_notes": ""}, {"dataset": "CE", "variable": "CESPFY", "label": "Specification of CE Term", "variable_type": "C", "length": "200", "core": "Supp", "role": "", "format_field": "", "key": "", "seq": "71", "origin": "CRF", "dataset_level": "Corporate", "cdisc_notes": "", "az_notes": ""}, {"dataset": "CE", "variable": "CETERMSP", "label": "Reported Term Clinical Event, Specify", "variable_type": "C", "length": "14", "core": "Supp", "role": "", "format_field": "", "key": "", "seq": "72", "origin": "", "dataset_level": "Corporate", "cdisc_notes": "", "az_notes": ""}, {"dataset": "CE", "variable": "CRSDES", "label": "CRS Description", "variable_type": "C", "length": "200", "core": "Supp", "role": "", "format_field": "", "key": "", "seq": "73", "origin": "CRF", "dataset_level": "Corporate", "cdisc_notes": "", "az_notes": ""}, {"dataset": "CE", "variable": "CRSDES1", "label": "CRS Description", "variable_type": "C", "length": "200", "core": "Supp", "role": "", "format_field": "", "key": "", "seq": "74", "origin": "CRF", "dataset_level": "Corporate", "cdisc_notes": "", "az_notes": ""}, {"dataset": "CE", "variable": "CRSDES2", "label": "CRS Description", "variable_type": "C", "length": "200", "core": "Supp", "role": "", "format_field": "", "key": "", "seq": "75", "origin": "CRF", "dataset_level": "Corporate", "cdisc_notes": "", "az_notes": ""}, {"dataset": "CE", "variable": "CRSDES3", "label": "CRS Description", "variable_type": "C", "length": "200", "core": "Supp", "role": "", "format_field": "", "key": "", "seq": "76", "origin": "CRF", "dataset_level": "Corporate", "cdisc_notes": "", "az_notes": ""}, {"dataset": "CE", "variable": "CRSDES4", "label": "CRS Description", "variable_type": "C", "length": "200", "core": "Supp", "role": "", "format_field": "", "key": "", "seq": "77", "origin": "CRF", "dataset_level": "Corporate", "cdisc_notes": "", "az_notes": ""}, {"dataset": "CE", "variable": "CRSDES5", "label": "CRS Description", "variable_type": "C", "length": "200", "core": "Supp", "role": "", "format_field": "", "key": "", "seq": "78", "origin": "CRF", "dataset_level": "Corporate", "cdisc_notes": "", "az_notes": ""}, {"dataset": "CE", "variable": "CRSDES6", "label": "CRS Description", "variable_type": "C", "length": "200", "core": "Supp", "role": "", "format_field": "", "key": "", "seq": "79", "origin": "CRF", "dataset_level": "Corporate", "cdisc_notes": "", "az_notes": ""}, {"dataset": "CE", "variable": "CRSDES7", "label": "CRS Description", "variable_type": "C", "length": "200", "core": "Supp", "role": "", "format_field": "", "key": "", "seq": "80", "origin": "CRF", "dataset_level": "Corporate", "cdisc_notes": "", "az_notes": ""}, {"dataset": "CE", "variable": "CRSDES8", "label": "CRS Description", "variable_type": "C", "length": "200", "core": "Supp", "role": "", "format_field": "", "key": "", "seq": "81", "origin": "CRF", "dataset_level": "Corporate", "cdisc_notes": "", "az_notes": ""}, {"dataset": "CE", "variable": "CRSDES9", "label": "CRS Description", "variable_type": "C", "length": "200", "core": "Supp", "role": "", "format_field": "", "key": "", "seq": "82", "origin": "CRF", "dataset_level": "Corporate", "cdisc_notes": "", "az_notes": ""}, {"dataset": "CE", "variable": "CTCAE_V", "label": "CTCAE Version", "variable_type": "C", "length": "5", "core": "Supp", "role": "", "format_field": "", "key": "", "seq": "83", "origin": "", "dataset_level": "Corporate", "cdisc_notes": "", "az_notes": ""}, {"dataset": "CE", "variable": "CVELOCO", "label": "Location of Hemorrhage Other, Specify", "variable_type": "C", "length": "200", "core": "Supp", "role": "", "format_field": "", "key": "", "seq": "84", "origin": "CRF", "dataset_level": "Corporate", "cdisc_notes": "", "az_notes": ""}, {"dataset": "CE", "variable": "DISCHDTC", "label": "Discharge Date/Time", "variable_type": "C", "length": "19", "core": "Supp", "role": "", "format_field": "ISO 8601", "key": "", "seq": "85", "origin": "CRF", "dataset_level": "Corporate", "cdisc_notes": "", "az_notes": ""}, {"dataset": "CE", "variable": "EVADJASO", "label": "Event Sent to Committee for Furth Assmnt", "variable_type": "C", "length": "8", "core": "Supp", "role": "", "format_field": "", "key": "", "seq": "86", "origin": "", "dataset_level": "Corporate", "cdisc_notes": "", "az_notes": ""}, {"dataset": "CE", "variable": "EVTN", "label": "Event Tracking Number", "variable_type": "C", "length": "8", "core": "Supp", "role": "", "format_field": "", "key": "", "seq": "87", "origin": "", "dataset_level": "Corporate", "cdisc_notes": "", "az_notes": ""}, {"dataset": "CE", "variable": "HFDESC01", "label": "Description of Urgent/Without Hosp HF 1", "variable_type": "C", "length": "200", "core": "Supp", "role": "", "format_field": "", "key": "", "seq": "88", "origin": "CRF", "dataset_level": "Corporate", "cdisc_notes": "", "az_notes": ""}, {"dataset": "CE", "variable": "HFDESC02", "label": "Description of Urgent/Without Hosp HF 2", "variable_type": "C", "length": "200", "core": "Supp", "role": "", "format_field": "", "key": "", "seq": "89", "origin": "CRF", "dataset_level": "Corporate", "cdisc_notes": "", "az_notes": ""}, {"dataset": "CE", "variable": "HFDESC03", "label": "Description of Urgent/Without Hosp HF 3", "variable_type": "C", "length": "200", "core": "Supp", "role": "", "format_field": "", "key": "", "seq": "90", "origin": "CRF", "dataset_level": "Corporate", "cdisc_notes": "", "az_notes": ""}, {"dataset": "CE", "variable": "HFDESC04", "label": "Description of Urgent/Without Hosp HF 4", "variable_type": "C", "length": "200", "core": "Supp", "role": "", "format_field": "", "key": "", "seq": "91", "origin": "CRF", "dataset_level": "Corporate", "cdisc_notes": "", "az_notes": ""}, {"dataset": "CE", "variable": "HFDESC05", "label": "Description of Urgent/Without Hosp HF 5", "variable_type": "C", "length": "200", "core": "Supp", "role": "", "format_field": "", "key": "", "seq": "92", "origin": "CRF", "dataset_level": "Corporate", "cdisc_notes": "", "az_notes": ""}, {"dataset": "CE", "variable": "HFDESC06", "label": "Description of Urgent/Without Hosp HF 6", "variable_type": "C", "length": "200", "core": "Supp", "role": "", "format_field": "", "key": "", "seq": "93", "origin": "CRF", "dataset_level": "Corporate", "cdisc_notes": "", "az_notes": ""}, {"dataset": "CE", "variable": "HFDESC07", "label": "Description of Urgent/Without Hosp HF 7", "variable_type": "C", "length": "200", "core": "Supp", "role": "", "format_field": "", "key": "", "seq": "94", "origin": "CRF", "dataset_level": "Corporate", "cdisc_notes": "", "az_notes": ""}, {"dataset": "CE", "variable": "HFDESC08", "label": "Description of Urgent/Without Hosp HF 8", "variable_type": "C", "length": "200", "core": "Supp", "role": "", "format_field": "", "key": "", "seq": "95", "origin": "CRF", "dataset_level": "Corporate", "cdisc_notes": "", "az_notes": ""}, {"dataset": "CE", "variable": "HFDESC09", "label": "Description of Urgent/Without Hosp HF 9", "variable_type": "C", "length": "200", "core": "Supp", "role": "", "format_field": "", "key": "", "seq": "96", "origin": "CRF", "dataset_level": "Corporate", "cdisc_notes": "", "az_notes": ""}, {"dataset": "CE", "variable": "HFDESC10", "label": "Description of Urgent/Without Hosp HF 10", "variable_type": "C", "length": "200", "core": "Supp", "role": "", "format_field": "", "key": "", "seq": "97", "origin": "CRF", "dataset_level": "Corporate", "cdisc_notes": "", "az_notes": ""}, {"dataset": "CE", "variable": "HFSPEOTH", "label": "Symptoms/Signs/PE Findings of HF, Other", "variable_type": "C", "length": "200", "core": "Supp", "role": "", "format_field": "", "key": "", "seq": "98", "origin": "CRF", "dataset_level": "Corporate", "cdisc_notes": "", "az_notes": ""}, {"dataset": "CE", "variable": "HFUOPV", "label": "Event Identified During Unsch. Outpt Vis", "variable_type": "C", "length": "2", "core": "Supp", "role": "", "format_field": "(NY)", "key": "", "seq": "99", "origin": "", "dataset_level": "Corporate", "cdisc_notes": "", "az_notes": ""}, {"dataset": "CE", "variable": "HRFLA", "label": "Heart Failure Adjudication", "variable_type": "C", "length": "40", "core": "Supp", "role": "", "format_field": "", "key": "", "seq": "100", "origin": "", "dataset_level": "Corporate", "cdisc_notes": "", "az_notes": ""}, {"dataset": "CE", "variable": "ICNDES", "label": "ICANS Description", "variable_type": "C", "length": "200", "core": "Supp", "role": "", "format_field": "", "key": "", "seq": "101", "origin": "CRF", "dataset_level": "Corporate", "cdisc_notes": "", "az_notes": ""}, {"dataset": "CE", "variable": "ICNDES1", "label": "ICANS Description", "variable_type": "C", "length": "200", "core": "Supp", "role": "", "format_field": "", "key": "", "seq": "102", "origin": "CRF", "dataset_level": "Corporate", "cdisc_notes": "", "az_notes": ""}, {"dataset": "CE", "variable": "ICNDES2", "label": "ICANS Description", "variable_type": "C", "length": "200", "core": "Supp", "role": "", "format_field": "", "key": "", "seq": "103", "origin": "CRF", "dataset_level": "Corporate", "cdisc_notes": "", "az_notes": ""}, {"dataset": "CE", "variable": "ICNDES3", "label": "ICANS Description", "variable_type": "C", "length": "200", "core": "Supp", "role": "", "format_field": "", "key": "", "seq": "104", "origin": "CRF", "dataset_level": "Corporate", "cdisc_notes": "", "az_notes": ""}, {"dataset": "CE", "variable": "ICNDES4", "label": "ICANS Description", "variable_type": "C", "length": "200", "core": "Supp", "role": "", "format_field": "", "key": "", "seq": "105", "origin": "CRF", "dataset_level": "Corporate", "cdisc_notes": "", "az_notes": ""}, {"dataset": "CE", "variable": "ICNDES5", "label": "ICANS Description", "variable_type": "C", "length": "200", "core": "Supp", "role": "", "format_field": "", "key": "", "seq": "106", "origin": "CRF", "dataset_level": "Corporate", "cdisc_notes": "", "az_notes": ""}, {"dataset": "CE", "variable": "ICNDES6", "label": "ICANS Description", "variable_type": "C", "length": "200", "core": "Supp", "role": "", "format_field": "", "key": "", "seq": "107", "origin": "CRF", "dataset_level": "Corporate", "cdisc_notes": "", "az_notes": ""}, {"dataset": "CE", "variable": "ICNDES7", "label": "ICANS Description", "variable_type": "C", "length": "200", "core": "Supp", "role": "", "format_field": "", "key": "", "seq": "108", "origin": "CRF", "dataset_level": "Corporate", "cdisc_notes": "", "az_notes": ""}, {"dataset": "CE", "variable": "ICNDES8", "label": "ICANS Description", "variable_type": "C", "length": "200", "core": "Supp", "role": "", "format_field": "", "key": "", "seq": "109", "origin": "CRF", "dataset_level": "Corporate", "cdisc_notes": "", "az_notes": ""}, {"dataset": "CE", "variable": "ICNDES9", "label": "ICANS Description", "variable_type": "C", "length": "200", "core": "Supp", "role": "", "format_field": "", "key": "", "seq": "110", "origin": "CRF", "dataset_level": "Corporate", "cdisc_notes": "", "az_notes": ""}, {"dataset": "CE", "variable": "MALADJ", "label": "Malignancy Adjudication", "variable_type": "C", "length": "200", "core": "Supp", "role": "", "format_field": "", "key": "", "seq": "111", "origin": "", "dataset_level": "Corporate", "cdisc_notes": "", "az_notes": ""}, {"dataset": "CE", "variable": "MEDDRAV", "label": "MedDRA Version", "variable_type": "C", "length": "20", "core": "Supp", "role": "", "format_field": "", "key": "", "seq": "112", "origin": "Assigned", "dataset_level": "Corporate", "cdisc_notes": "", "az_notes": ""}, {"dataset": "CE", "variable": "MIADJ", "label": "Myocardiac Infarction Adjudication", "variable_type": "C", "length": "200", "core": "Supp", "role": "", "format_field": "", "key": "", "seq": "113", "origin": "", "dataset_level": "Corporate", "cdisc_notes": "", "az_notes": ""}, {"dataset": "CE", "variable": "MODULE", "label": "Source Module Short Name", "variable_type": "C", "length": "8", "core": "Supp", "role": "", "format_field": "(MODULE)", "key": "", "seq": "114", "origin": "CRF", "dataset_level": "Corporate", "cdisc_notes": "", "az_notes": ""}, {"dataset": "CE", "variable": "MRSCURR", "label": "MRS at Curr Vis or 90 D After Cerebr Ev", "variable_type": "C", "length": "2", "core": "Supp", "role": "", "format_field": "(NY)", "key": "", "seq": "115", "origin": "", "dataset_level": "Corporate", "cdisc_notes": "", "az_notes": ""}, {"dataset": "CE", "variable": "MRSDURH", "label": "MRS During Cerebrovascular Event Hosp", "variable_type": "C", "length": "2", "core": "Supp", "role": "", "format_field": "(NY)", "key": "", "seq": "116", "origin": "", "dataset_level": "Corporate", "cdisc_notes": "", "az_notes": ""}, {"dataset": "CE", "variable": "MRSPRIOR", "label": "MRS Prior to Cerebrovascular Event", "variable_type": "C", "length": "2", "core": "Supp", "role": "", "format_field": "(NY)", "key": "", "seq": "117", "origin": "", "dataset_level": "Corporate", "cdisc_notes": "", "az_notes": ""}, {"dataset": "CE", "variable": "PPXPMED", "label": "Any Prophyla Med. Prior Study Drug Infus", "variable_type": "C", "length": "2", "core": "Supp", "role": "", "format_field": "(NY)", "key": "", "seq": "118", "origin": "CRF", "dataset_level": "Corporate", "cdisc_notes": "", "az_notes": ""}, {"dataset": "CE", "variable": "SCAADJ", "label": "Serious Cardiac Arrhythmia Adjudication", "variable_type": "C", "length": "200", "core": "Supp", "role": "", "format_field": "", "key": "", "seq": "119", "origin": "", "dataset_level": "Corporate", "cdisc_notes": "", "az_notes": ""}, {"dataset": "CE", "variable": "SOLARSEV", "label": "Maximum Intensity after end of eDiary", "variable_type": "C", "length": "20", "core": "Supp", "role": "", "format_field": "", "key": "", "seq": "120", "origin": "", "dataset_level": "Corporate", "cdisc_notes": "", "az_notes": ""}, {"dataset": "CE", "variable": "STRKAJD", "label": "Stroke Event Adjudication", "variable_type": "C", "length": "200", "core": "Supp", "role": "", "format_field": "", "key": "", "seq": "121", "origin": "", "dataset_level": "Corporate", "cdisc_notes": "", "az_notes": ""}, {"dataset": "CE", "variable": "VISITDTC", "label": "Date of Visit", "variable_type": "C", "length": "19", "core": "Supp", "role": "", "format_field": "ISO 8601", "key": "", "seq": "122", "origin": "CRF", "dataset_level": "Corporate", "cdisc_notes": "", "az_notes": ""}, {"dataset": "CM", "variable": "STUDYID", "label": "Study Identifier", "variable_type": "C", "length": "21", "core": "Req", "role": "Identifier", "format_field": "", "key": "1", "seq": "1", "origin": "Protocol", "dataset_level": "Corporate", "cdisc_notes": "Unique identifier for a study.", "az_notes": ""}, {"dataset": "CM", "variable": "DOMAIN", "label": "Domain Abbreviation", "variable_type": "C", "length": "8", "core": "Req", "role": "Identifier", "format_field": "(DOMAIN)", "key": "", "seq": "2", "origin": "Assigned", "dataset_level": "Corporate", "cdisc_notes": "Two-character abbreviation for the domain.", "az_notes": ""}, {"dataset": "CM", "variable": "USUBJID", "label": "Unique Subject Identifier", "variable_type": "C", "length": "30", "core": "Req", "role": "Identifier", "format_field": "", "key": "2", "seq": "3", "origin": "Derived", "dataset_level": "Corporate", "cdisc_notes": "Identifier used to uniquely identify a subject across all studies for all applications or submissions involving the product.", "az_notes": ""}, {"dataset": "CM", "variable": "SPDEVID", "label": "Sponsor Device Identifier", "variable_type": "C", "length": "40", "core": "Perm", "role": "Identifier", "format_field": "", "key": "", "seq": "4", "origin": "CRF", "dataset_level": "Corporate", "cdisc_notes": "Sponsor-defined identifier for a device.", "az_notes": ""}, {"dataset": "CM", "variable": "CMSEQ", "label": "Sequence Number", "variable_type": "N", "length": "8", "core": "Req", "role": "Identifier", "format_field": "", "key": "", "seq": "5", "origin": "Derived", "dataset_level": "Corporate", "cdisc_notes": "Sequence number to ensure uniqueness of subject records within a domain. May be any valid number.", "az_notes": ""}, {"dataset": "CM", "variable": "CMGRPID", "label": "Group ID", "variable_type": "C", "length": "40", "core": "Perm", "role": "Identifier", "format_field": "", "key": "", "seq": "6", "origin": "Derived", "dataset_level": "Corporate", "cdisc_notes": "Used to tie together a block of related records in a single domain for a subject.", "az_notes": ""}, {"dataset": "CM", "variable": "CMREFID", "label": "Reference ID", "variable_type": "C", "length": "8", "core": "Perm", "role": "Identifier", "format_field": "", "key": "", "seq": "7", "origin": "CRF", "dataset_level": "Corporate", "cdisc_notes": "Optional internal or external identifier such as lab specimen ID, or UUID for an ECG waveform or a medical image.", "az_notes": ""}, {"dataset": "CM", "variable": "CMSPID", "label": "Sponsor-Defined Identifier", "variable_type": "C", "length": "40", "core": "Perm", "role": "Identifier", "format_field": "", "key": "", "seq": "8", "origin": "Assigned", "dataset_level": "Corporate", "cdisc_notes": "Sponsor-defined reference number. Example: a number preprinted on the CRF as an explicit line identifier or record identifier defined in the sponsor's operational database. Example: line number on a concomitant medication page.", "az_notes": ""}, {"dataset": "CM", "variable": "CMLNKID", "label": "Link ID", "variable_type": "C", "length": "40", "core": "Perm", "role": "Identifier", "format_field": "", "key": "", "seq": "9", "origin": "Assigned", "dataset_level": "Corporate", "cdisc_notes": "Identifier used to link related records across domains. This may be a one-to-one or a one-to-many relationship. For example, a single tumor may have multiple measurements/assessments performed at each study visit.", "az_notes": ""}, {"dataset": "CM", "variable": "CMLNKGRP", "label": "Link Group ID", "variable_type": "C", "length": "40", "core": "Perm", "role": "Identifier", "format_field": "", "key": "", "seq": "10", "origin": "Derived", "dataset_level": "Corporate", "cdisc_notes": "Identifier used to link related records across domains. This will usually be a many-to-one relationship. For example, multiple tumor measurements/assessments will contribute to a single response to therapy determination record.", "az_notes": ""}, {"dataset": "CM", "variable": "CMTRT", "label": "Reported Name of Drug, Med, or Therapy", "variable_type": "C", "length": "200", "core": "Req", "role": "Topic", "format_field": "", "key": "4", "seq": "11", "origin": "CRF", "dataset_level": "Corporate", "cdisc_notes": "Verbatim medication name that is either preprinted or collected on a CRF.", "az_notes": ""}, {"dataset": "CM", "variable": "CMMODIFY", "label": "Modified Reported Name", "variable_type": "C", "length": "200", "core": "Perm", "role": "Synonym Qualifier", "format_field": "", "key": "", "seq": "12", "origin": "Assigned", "dataset_level": "Corporate", "cdisc_notes": "If CMTRT is modified to facilitate coding, then CMMODIFY will contain the modified text.", "az_notes": ""}, {"dataset": "CM", "variable": "CMDECOD", "label": "Standardized Medication Name", "variable_type": "C", "length": "200", "core": "Perm", "role": "Synonym Qualifier", "format_field": "", "key": "", "seq": "13", "origin": "Assigned", "dataset_level": "Corporate", "cdisc_notes": "Standardized or dictionary-derived text description of CMTRT or CMMODIFY. Equivalent to the generic drug name in WHO Drug. The sponsor is expected to provide the dictionary name and version used to map the terms utilizing the external codelist element in the Define-XML document. If an intervention term does not have a decode value in the dictionary, then CMDECOD will be left blank.", "az_notes": ""}, {"dataset": "CM", "variable": "CMCAT", "label": "Category for Medication", "variable_type": "C", "length": "40", "core": "Perm", "role": "Grouping Qualifier", "format_field": "", "key": "", "seq": "14", "origin": "CRF", "dataset_level": "Corporate", "cdisc_notes": "Used to define a category of medications/treatment. Examples: \"PRIOR\", \"CONCOMITANT\", \"ANTI-CANCER MEDICATION\", \"GENERAL CONMED\".", "az_notes": ""}, {"dataset": "CM", "variable": "CMSCAT", "label": "Subcategory for Medication", "variable_type": "C", "length": "40", "core": "Perm", "role": "Grouping Qualifier", "format_field": "", "key": "", "seq": "15", "origin": "Assigned", "dataset_level": "Corporate", "cdisc_notes": "A further categorization of medications/treatment. Examples: \"CHEMOTHERAPY\", \"HORMONAL THERAPY\", \"ALTERNATIVE THERAPY\".", "az_notes": ""}, {"dataset": "CM", "variable": "CMPRESP", "label": "CM Pre-specified", "variable_type": "C", "length": "1", "core": "Perm", "role": "Variable Qualifier", "format_field": "(NY)", "key": "", "seq": "16", "origin": "Assigned", "dataset_level": "Corporate", "cdisc_notes": "Used to indicate whether (\"Y\"/null) information about the use of a specific medication was solicited on the CRF.", "az_notes": ""}, {"dataset": "CM", "variable": "CMOCCUR", "label": "CM Occurrence", "variable_type": "C", "length": "1", "core": "Perm", "role": "Record Qualifier", "format_field": "(NY)", "key": "", "seq": "17", "origin": "Assigned", "dataset_level": "Corporate", "cdisc_notes": "When the use of a specific medication is solicited. CMOCCUR is used to indicate whether (\"Y\"/\"N\") use of the medication occurred. Values are null for medications not specifically solicited.", "az_notes": ""}, {"dataset": "CM", "variable": "CMREASOC", "label": "Reason for Occur Value", "variable_type": "C", "length": "200", "core": "Perm", "role": "", "format_field": "", "key": "", "seq": "18", "origin": "", "dataset_level": "Corporate", "cdisc_notes": "", "az_notes": ""}, {"dataset": "CM", "variable": "CMSTAT", "label": "Completion Status", "variable_type": "C", "length": "8", "core": "Perm", "role": "Record Qualifier", "format_field": "(ND)", "key": "", "seq": "19", "origin": "Derived", "dataset_level": "Corporate", "cdisc_notes": "Used to indicate that a question about the occurrence of a prespecified intervention was not answered. Should be null or have a value of \"NOT DONE\".", "az_notes": ""}, {"dataset": "CM", "variable": "CMREASND", "label": "Reason Medication Not Collected", "variable_type": "C", "length": "200", "core": "Perm", "role": "Record Qualifier", "format_field": "", "key": "", "seq": "20", "origin": "CRF", "dataset_level": "Corporate", "cdisc_notes": "Reason not done. Used in conjunction with CMSTAT when value is \"NOT DONE\".", "az_notes": ""}, {"dataset": "CM", "variable": "CMINDC", "label": "Indication", "variable_type": "C", "length": "200", "core": "Perm", "role": "Record Qualifier", "format_field": "", "key": "", "seq": "21", "origin": "CRF", "dataset_level": "Corporate", "cdisc_notes": "Denotes why a medication was taken or administered. Examples: \"NAUSEA\", \"HYPERTENSION\".", "az_notes": ""}, {"dataset": "CM", "variable": "CMCLAS", "label": "Medication Class", "variable_type": "C", "length": "200", "core": "Perm", "role": "Variable Qualifier", "format_field": "", "key": "", "seq": "22", "origin": "Assigned", "dataset_level": "Corporate", "cdisc_notes": "Drug class. May be obtained from coding. When coding to a single class, populate with class value. If using a dictionary and coding to multiple classes, then follow Section 4.2.8.3, Multiple Values for a Non-result Qualifier Variable, or omit CMCLAS.", "az_notes": ""}, {"dataset": "CM", "variable": "CMCLASCD", "label": "Medication Class Code", "variable_type": "C", "length": "200", "core": "Perm", "role": "Variable Qualifier", "format_field": "", "key": "", "seq": "23", "origin": "Assigned", "dataset_level": "Corporate", "cdisc_notes": "Class code corresponding to CMCLAS. Drug class. May be obtained from coding. When coding to a single class, populate with class code. If using a dictionary and coding to multiple classes, then follow Section 4.2.8.3, Multiple Values for a Non-result Qualifier Variable, or omit CMCLASCD.", "az_notes": ""}, {"dataset": "CM", "variable": "CMDOSE", "label": "Dose per Administration", "variable_type": "N", "length": "8", "core": "Perm", "role": "Record Qualifier", "format_field": "", "key": "", "seq": "24", "origin": "CRF", "dataset_level": "Corporate", "cdisc_notes": "Amount of CMTRT given. Not populated when CMDOSTXT is populated.", "az_notes": ""}, {"dataset": "CM", "variable": "CMDOSTXT", "label": "Dose Description", "variable_type": "C", "length": "200", "core": "Perm", "role": "Record Qualifier", "format_field": "", "key": "", "seq": "25", "origin": "CRF", "dataset_level": "Corporate", "cdisc_notes": "Dosing amounts or a range of dosing information collected in text form. Units may be stored in CMDOSU. Examples: \"200-400\", \"15-20\". Not populated when CMDOSE is populated.", "az_notes": ""}, {"dataset": "CM", "variable": "CMDOSU", "label": "Dose Units", "variable_type": "C", "length": "20", "core": "Perm", "role": "Variable Qualifier", "format_field": "(UNIT)", "key": "", "seq": "26", "origin": "CRF", "dataset_level": "Corporate", "cdisc_notes": "Units for CMDOSE, CMDOSTOT, or CMDOSTXT. Examples: \"ng\", \"mg\", \"mg/kg\".", "az_notes": ""}, {"dataset": "CM", "variable": "CMDOSFRM", "label": "Dose Form", "variable_type": "C", "length": "100", "core": "Perm", "role": "Variable Qualifier", "format_field": "(FRM)", "key": "", "seq": "27", "origin": "CRF", "dataset_level": "Corporate", "cdisc_notes": "Dose form for CMTRT. Examples: \"TABLET\", \"LOTION\".", "az_notes": ""}, {"dataset": "CM", "variable": "CMDOSFRQ", "label": "Dosing Frequency per Interval", "variable_type": "C", "length": "200", "core": "Perm", "role": "Record Qualifier", "format_field": "(FREQ)", "key": "", "seq": "28", "origin": "CRF", "dataset_level": "Corporate", "cdisc_notes": "Usually expressed as the number of repeated administrations of CMDOSE within a specific time period. Examples: \"BID\" (twice daily), \"Q12H\" (every 12 hours).", "az_notes": ""}, {"dataset": "CM", "variable": "CMDOSTOT", "label": "Total Daily Dose", "variable_type": "N", "length": "8", "core": "Perm", "role": "Record Qualifier", "format_field": "", "key": "", "seq": "29", "origin": "CRF", "dataset_level": "Corporate", "cdisc_notes": "Total daily dose of CMTRT using the units in CMDOSU. Used when dosing is collected as total daily dose. Total dose over a period other than day could be recorded in a separate supplemental qualifier variable.", "az_notes": ""}, {"dataset": "CM", "variable": "CMDOSRGM", "label": "Intended Dose Regimen", "variable_type": "C", "length": "200", "core": "Perm", "role": "Record Qualifier", "format_field": "", "key": "", "seq": "30", "origin": "CRF", "dataset_level": "Corporate", "cdisc_notes": "Text description of the (intended) schedule or regimen for the Intervention. Example: \"TWO WEEKS ON, TWO WEEKS OFF\".", "az_notes": ""}, {"dataset": "CM", "variable": "CMROUTE", "label": "Route of Administration", "variable_type": "C", "length": "200", "core": "Perm", "role": "Variable Qualifier", "format_field": "(ROUTE)", "key": "", "seq": "31", "origin": "CRF", "dataset_level": "Corporate", "cdisc_notes": "Route of administration for the intervention. Examples: \"ORAL\", \"INTRAVENOUS\".", "az_notes": ""}, {"dataset": "CM", "variable": "CMLOC", "label": "Location of Administration", "variable_type": "C", "length": "200", "core": "Perm", "role": "Record Qualifier", "format_field": "(LOC)", "key": "", "seq": "32", "origin": "CRF", "dataset_level": "Corporate", "cdisc_notes": "Anatomical location of an intervention, such as an injection site. Example: ARM for an injection.", "az_notes": ""}, {"dataset": "CM", "variable": "CMLAT", "label": "Laterality", "variable_type": "C", "length": "40", "core": "Perm", "role": "Variable Qualifier", "format_field": "(LAT)", "key": "", "seq": "33", "origin": "CRF", "dataset_level": "Corporate", "cdisc_notes": "Qualifier for anatomical location further detailing laterality of the intervention administration. Examples: \"LEFT\", \"RIGHT\".", "az_notes": ""}, {"dataset": "CM", "variable": "CMTRTV", "label": "Treatment Vehicle", "variable_type": "C", "length": "40", "core": "Perm", "role": "Record Qualifier", "format_field": "", "key": "", "seq": "34", "origin": "CRF", "dataset_level": "Corporate", "cdisc_notes": "Vehicle for administration of treatment, such as a liquid in which the treatment drug is dissolved. Example: \"SALINE\".", "az_notes": ""}, {"dataset": "CM", "variable": "CMVAMT", "label": "Treatment Vehicle Amount", "variable_type": "N", "length": "8", "core": "Perm", "role": "Record Qualifier", "format_field": "", "key": "", "seq": "35", "origin": "CRF", "dataset_level": "Corporate", "cdisc_notes": "Amount of the prepared product (treatment + vehicle) administered or given. Note: should not be diluent amount alone.", "az_notes": ""}, {"dataset": "CM", "variable": "CMVAMTU", "label": "Treatment Vehicle Amount Units", "variable_type": "C", "length": "40", "core": "Perm", "role": "Variable Qualifier", "format_field": "", "key": "", "seq": "36", "origin": "CRF", "dataset_level": "Corporate", "cdisc_notes": "Units for the prepared product (treatment + vehicle). Examples: \"mL\", \"mg\".", "az_notes": ""}, {"dataset": "CM", "variable": "CMADJ", "label": "Reason for Dose Adjustment", "variable_type": "C", "length": "200", "core": "Perm", "role": "Record Qualifier", "format_field": "", "key": "", "seq": "37", "origin": "CRF", "dataset_level": "Corporate", "cdisc_notes": "Describes reason or explanation of why a dose is adjusted. Examples: \"ADVERSE EVENT\", \"INSUFFICIENT RESPONSE\", \"NON-MEDICAL REASON\".", "az_notes": ""}, {"dataset": "CM", "variable": "CMRSDISC", "label": "Reason the Intervention Was Discontinued", "variable_type": "C", "length": "200", "core": "Perm", "role": "Record Qualifier", "format_field": "", "key": "", "seq": "38", "origin": "Derived", "dataset_level": "Corporate", "cdisc_notes": "When dosing of a treatment is recorded over multiple successive records, this variable is applicable only for the (chronologically) last record for the treatment.", "az_notes": ""}, {"dataset": "CM", "variable": "VISITNUM", "label": "Visit Number", "variable_type": "N", "length": "8", "core": "Perm", "role": "Timing", "format_field": "", "key": "", "seq": "39", "origin": "Derived", "dataset_level": "Corporate", "cdisc_notes": "1. Clinical encounter number. 2. Numeric version of VISIT, used for sorting.", "az_notes": ""}, {"dataset": "CM", "variable": "VISIT", "label": "Visit Name", "variable_type": "C", "length": "40", "core": "Perm", "role": "Timing", "format_field": "", "key": "", "seq": "40", "origin": "Protocol", "dataset_level": "Corporate", "cdisc_notes": "1. Protocol-defined description of clinical encounter. 2. May be used in addition to VISITNUM and/or VISITDY.", "az_notes": ""}, {"dataset": "CM", "variable": "VISITDY", "label": "Planned Study Day of Visit", "variable_type": "N", "length": "8", "core": "Perm", "role": "Timing", "format_field": "", "key": "", "seq": "41", "origin": "Assigned", "dataset_level": "Corporate", "cdisc_notes": "Planned study day of VISIT based upon RFSTDTC in Demographics. Should be an integer.", "az_notes": ""}, {"dataset": "CM", "variable": "TAETORD", "label": "Planned Order of Element within Arm", "variable_type": "N", "length": "8", "core": "Perm", "role": "Timing", "format_field": "", "key": "", "seq": "42", "origin": "Protocol", "dataset_level": "Corporate", "cdisc_notes": "Number that gives the planned order of the element within the arm for the element in which the medication administration started. Null for medications that started before study participation.", "az_notes": ""}, {"dataset": "CM", "variable": "EPOCH", "label": "Epoch", "variable_type": "C", "length": "40", "core": "Perm", "role": "Timing", "format_field": "(EPOCH)", "key": "", "seq": "43", "origin": "Protocol", "dataset_level": "Corporate", "cdisc_notes": "Epoch associated with the start date/time of the medication administration. Null for medications that started before study participation.", "az_notes": ""}, {"dataset": "CM", "variable": "CMDTC", "label": "Date/Time of Collection", "variable_type": "C", "length": "19", "core": "Perm", "role": "", "format_field": "", "key": "", "seq": "44", "origin": "", "dataset_level": "Corporate", "cdisc_notes": "", "az_notes": ""}, {"dataset": "CM", "variable": "CMSTDTC", "label": "Start Date/Time of Medication", "variable_type": "C", "length": "19", "core": "Perm", "role": "Timing", "format_field": "ISO 8601", "key": "3", "seq": "45", "origin": "CRF", "dataset_level": "Corporate", "cdisc_notes": "Start date/time of the medication administration represented in ISO 8601 character format.", "az_notes": ""}, {"dataset": "CM", "variable": "CMENDTC", "label": "End Date/Time of Medication", "variable_type": "C", "length": "19", "core": "Perm", "role": "Timing", "format_field": "ISO 8601", "key": "", "seq": "46", "origin": "CRF", "dataset_level": "Corporate", "cdisc_notes": "End date/time of the medication administration represented in ISO 8601 character format.", "az_notes": ""}, {"dataset": "CM", "variable": "CMSTDY", "label": "Study Day of Start of Medication", "variable_type": "N", "length": "8", "core": "Perm", "role": "Timing", "format_field": "", "key": "", "seq": "47", "origin": "Derived", "dataset_level": "Corporate", "cdisc_notes": "Study day of start of medication relative to the sponsor-defined RFSTDTC.", "az_notes": ""}, {"dataset": "CM", "variable": "CMENDY", "label": "Study Day of End of Medication", "variable_type": "N", "length": "8", "core": "Perm", "role": "Timing", "format_field": "", "key": "", "seq": "48", "origin": "Derived", "dataset_level": "Corporate", "cdisc_notes": "Study day of end of medication relative to the sponsor-defined RFSTDTC.", "az_notes": ""}, {"dataset": "CM", "variable": "CMDUR", "label": "Duration", "variable_type": "C", "length": "40", "core": "Perm", "role": "Timing", "format_field": "ISO 8601", "key": "", "seq": "49", "origin": "CRF", "dataset_level": "Corporate", "cdisc_notes": "Collected duration for a treatment episode. Used only if collected on the CRF and not derived from start and end date/times.", "az_notes": ""}, {"dataset": "CM", "variable": "CMTPT", "label": "Planned Time Point Name", "variable_type": "C", "length": "40", "core": "Perm", "role": "Timing", "format_field": "", "key": "", "seq": "50", "origin": "Assigned", "dataset_level": "Corporate", "cdisc_notes": "Text description of time when a measurement or observation should be taken, as defined in the protocol. This may be represented as an elapsed time relative to a fixed reference point, such as time of last dose. See CVTPTNUM and CVTPTREF.", "az_notes": ""}, {"dataset": "CM", "variable": "CMSTRF", "label": "Start Relative to Reference Period", "variable_type": "C", "length": "40", "core": "Perm", "role": "Timing", "format_field": "(STENRF)", "key": "", "seq": "51", "origin": "Assigned", "dataset_level": "Corporate", "cdisc_notes": "Describes the start of the medication relative to sponsor-defined reference period. The sponsor-defined reference period is a continuous period of time defined by a discrete starting point and a discrete ending point (represented by RFSTDTC and RFENDTC in Demographics). If information such as \"PRIOR\" was collected, this information may be translated into CMSTRF. \\n Not all values of the codelist are allowable for this variable. See Section 4.4.7, Use of Relative Timing Variables.", "az_notes": ""}, {"dataset": "CM", "variable": "CMENRF", "label": "End Relative to Reference Period", "variable_type": "C", "length": "40", "core": "Perm", "role": "Timing", "format_field": "(STENRF)", "key": "", "seq": "52", "origin": "Assigned", "dataset_level": "Corporate", "cdisc_notes": "Describes the end of the medication relative to the sponsor-defined reference period. The sponsor-defined reference period is a continuous period of time defined by a discrete starting point and a discrete ending point (represented by RFSTDTC and RFENDTC in Demographics). If information such as \"PRIOR\", \"ONGOING, or \"CONTINUING\" was collected, this information may be translated into CMENRF. \\n Not all values of the codelist are allowable for this variable. See Section 4.4.7, Use of Relative Timing Variables.", "az_notes": ""}, {"dataset": "CM", "variable": "CMEVINTX", "label": "Evaluation Interval Text", "variable_type": "C", "length": "80", "core": "Perm", "role": "Timing", "format_field": "", "key": "", "seq": "53", "origin": "CRF", "dataset_level": "Corporate", "cdisc_notes": "", "az_notes": ""}, {"dataset": "CM", "variable": "CMSTRTPT", "label": "Start Relative to Reference Time Point", "variable_type": "C", "length": "40", "core": "Perm", "role": "Timing", "format_field": "(STENRF)", "key": "", "seq": "54", "origin": "Assigned", "dataset_level": "Corporate", "cdisc_notes": "Identifies the start of the medication as being before or after the sponsor-defined reference time point defined by variable CMSTTPT. \\n Not all values of the codelist are allowable for this variable. See Section 4.4.7, Use of Relative Timing Variables.", "az_notes": ""}, {"dataset": "CM", "variable": "CMSTTPT", "label": "Start Reference Time Point", "variable_type": "C", "length": "40", "core": "Perm", "role": "Timing", "format_field": "", "key": "", "seq": "55", "origin": "Assigned", "dataset_level": "Corporate", "cdisc_notes": "Description or date/time in ISO 8601 character format of the sponsor-defined reference point referred to by CMSTRTPT. Examples: \"2003-12-15\", \"VISIT 1\".", "az_notes": ""}, {"dataset": "CM", "variable": "CMENRTPT", "label": "End Relative to Reference Time Point", "variable_type": "C", "length": "40", "core": "Perm", "role": "Timing", "format_field": "(STENRF)", "key": "", "seq": "56", "origin": "Assigned", "dataset_level": "Corporate", "cdisc_notes": "Identifies the end of the medication as being before or after the sponsor-defined reference time point defined by variable CMENTPT. \\n Not all values of the codelist are allowable for this variable. See Section 4.4.7, Use of Relative Timing Variables.", "az_notes": ""}, {"dataset": "CM", "variable": "CMENTPT", "label": "End Reference Time Point", "variable_type": "C", "length": "40", "core": "Perm", "role": "Timing", "format_field": "", "key": "", "seq": "57", "origin": "Assigned", "dataset_level": "Corporate", "cdisc_notes": "Description or date/time in ISO 8601 character format of the sponsor-defined reference point referred to by CMENRTPT. Examples: \"2003-12-25\", \"VISIT 2\".", "az_notes": ""}, {"dataset": "CM", "variable": "BLDUNITS", "label": "Number of Units Transfused", "variable_type": "C", "length": "3", "core": "Supp", "role": "", "format_field": "", "key": "", "seq": "58", "origin": "CRF", "dataset_level": "Corporate", "cdisc_notes": "", "az_notes": ""}, {"dataset": "CM", "variable": "CMAENO", "label": "AE Number for Medication Taken", "variable_type": "C", "length": "40", "core": "Supp", "role": "", "format_field": "", "key": "", "seq": "59", "origin": "CRF", "dataset_level": "Corporate", "cdisc_notes": "", "az_notes": ""}, {"dataset": "CM", "variable": "CMCD", "label": "Medication Code", "variable_type": "C", "length": "18", "core": "Supp", "role": "", "format_field": "", "key": "", "seq": "60", "origin": "Assigned", "dataset_level": "Corporate", "cdisc_notes": "", "az_notes": ""}, {"dataset": "CM", "variable": "CMCDOSE", "label": "Prior Therapy Dose", "variable_type": "C", "length": "8", "core": "Supp", "role": "", "format_field": "", "key": "", "seq": "61", "origin": "CRF", "dataset_level": "Corporate", "cdisc_notes": "", "az_notes": ""}, {"dataset": "CM", "variable": "CMCLYN", "label": "Cycle Number Applicable", "variable_type": "C", "length": "6", "core": "Supp", "role": "", "format_field": "(NY)", "key": "", "seq": "62", "origin": "CRF", "dataset_level": "Corporate", "cdisc_notes": "", "az_notes": ""}, {"dataset": "CM", "variable": "CMCROUTO", "label": "Agent Route of Administration, Other", "variable_type": "C", "length": "200", "core": "Supp", "role": "", "format_field": "", "key": "", "seq": "63", "origin": "", "dataset_level": "Corporate", "cdisc_notes": "", "az_notes": ""}, {"dataset": "CM", "variable": "CMDDOSE", "label": "Number of Cycles Administered", "variable_type": "C", "length": "3", "core": "Supp", "role": "", "format_field": "", "key": "", "seq": "64", "origin": "CRF", "dataset_level": "Corporate", "cdisc_notes": "", "az_notes": ""}, {"dataset": "CM", "variable": "CMDECOD1", "label": "Standardized Medication Name", "variable_type": "C", "length": "200", "core": "Supp", "role": "", "format_field": "", "key": "", "seq": "65", "origin": "Assigned", "dataset_level": "Corporate", "cdisc_notes": "", "az_notes": ""}, {"dataset": "CM", "variable": "CMDECOD2", "label": "Standardized Medication Name", "variable_type": "C", "length": "200", "core": "Supp", "role": "", "format_field": "", "key": "", "seq": "66", "origin": "Assigned", "dataset_level": "Corporate", "cdisc_notes": "", "az_notes": ""}, {"dataset": "CM", "variable": "CMDECOD3", "label": "Standardized Medication Name", "variable_type": "C", "length": "200", "core": "Supp", "role": "", "format_field": "", "key": "", "seq": "67", "origin": "Assigned", "dataset_level": "Corporate", "cdisc_notes": "", "az_notes": ""}, {"dataset": "CM", "variable": "CMDECOD4", "label": "Standardized Medication Name", "variable_type": "C", "length": "200", "core": "Supp", "role": "", "format_field": "", "key": "", "seq": "68", "origin": "Assigned", "dataset_level": "Corporate", "cdisc_notes": "", "az_notes": ""}, {"dataset": "CM", "variable": "CMDECOD5", "label": "Standardized Medication Name", "variable_type": "C", "length": "200", "core": "Supp", "role": "", "format_field": "", "key": "", "seq": "69", "origin": "Assigned", "dataset_level": "Corporate", "cdisc_notes": "", "az_notes": ""}, {"dataset": "CM", "variable": "CMDECOD6", "label": "Standardized Medication Name", "variable_type": "C", "length": "200", "core": "Supp", "role": "", "format_field": "", "key": "", "seq": "70", "origin": "Assigned", "dataset_level": "Corporate", "cdisc_notes": "", "az_notes": ""}, {"dataset": "CM", "variable": "CMDECOD7", "label": "Standardized Medication Name", "variable_type": "C", "length": "200", "core": "Supp", "role": "", "format_field": "", "key": "", "seq": "71", "origin": "Assigned", "dataset_level": "Corporate", "cdisc_notes": "", "az_notes": ""}, {"dataset": "CM", "variable": "CMDECOD8", "label": "Standardized Medication Name", "variable_type": "C", "length": "200", "core": "Supp", "role": "", "format_field": "", "key": "", "seq": "72", "origin": "", "dataset_level": "Corporate", "cdisc_notes": "", "az_notes": ""}, {"dataset": "CM", "variable": "CMDOSFO", "label": "Dose Form, Other", "variable_type": "C", "length": "200", "core": "Supp", "role": "", "format_field": "", "key": "", "seq": "73", "origin": "CRF", "dataset_level": "Corporate", "cdisc_notes": "", "az_notes": ""}, {"dataset": "CM", "variable": "CMDOSUO", "label": "Dose Unit, Other", "variable_type": "C", "length": "200", "core": "Supp", "role": "", "format_field": "", "key": "", "seq": "74", "origin": "CRF", "dataset_level": "Corporate", "cdisc_notes": "", "az_notes": ""}, {"dataset": "CM", "variable": "CMDSFRQO", "label": "Medication Dosing Frequency, Other", "variable_type": "C", "length": "200", "core": "Supp", "role": "", "format_field": "", "key": "", "seq": "75", "origin": "CRF", "dataset_level": "Corporate", "cdisc_notes": "", "az_notes": ""}, {"dataset": "CM", "variable": "CMDTXT", "label": "Medication Dictionary Text", "variable_type": "C", "length": "200", "core": "Supp", "role": "", "format_field": "", "key": "", "seq": "76", "origin": "Assigned", "dataset_level": "Corporate", "cdisc_notes": "", "az_notes": ""}, {"dataset": "CM", "variable": "CMDTXT1", "label": "Medication Dictionary Text", "variable_type": "C", "length": "200", "core": "Supp", "role": "", "format_field": "", "key": "", "seq": "77", "origin": "Assigned", "dataset_level": "Corporate", "cdisc_notes": "", "az_notes": ""}, {"dataset": "CM", "variable": "CMDTXT2", "label": "Medication Dictionary Text", "variable_type": "C", "length": "200", "core": "Supp", "role": "", "format_field": "", "key": "", "seq": "78", "origin": "Assigned", "dataset_level": "Corporate", "cdisc_notes": "", "az_notes": ""}, {"dataset": "CM", "variable": "CMDTXT3", "label": "Medication Dictionary Text", "variable_type": "C", "length": "200", "core": "Supp", "role": "", "format_field": "", "key": "", "seq": "79", "origin": "Assigned", "dataset_level": "Corporate", "cdisc_notes": "", "az_notes": ""}, {"dataset": "CM", "variable": "CMDTXT4", "label": "Medication Dictionary Text", "variable_type": "C", "length": "200", "core": "Supp", "role": "", "format_field": "", "key": "", "seq": "80", "origin": "Assigned", "dataset_level": "Corporate", "cdisc_notes": "", "az_notes": ""}, {"dataset": "CM", "variable": "CMDTXT5", "label": "Medication Dictionary Text", "variable_type": "C", "length": "200", "core": "Supp", "role": "", "format_field": "", "key": "", "seq": "81", "origin": "Assigned", "dataset_level": "Corporate", "cdisc_notes": "", "az_notes": ""}, {"dataset": "CM", "variable": "CMDTXT6", "label": "Medication Dictionary Text", "variable_type": "C", "length": "200", "core": "Supp", "role": "", "format_field": "", "key": "", "seq": "82", "origin": "Assigned", "dataset_level": "Corporate", "cdisc_notes": "", "az_notes": ""}, {"dataset": "CM", "variable": "CMDTXT7", "label": "Medication Dictionary Text", "variable_type": "C", "length": "200", "core": "Supp", "role": "", "format_field": "", "key": "", "seq": "83", "origin": "Assigned", "dataset_level": "Corporate", "cdisc_notes": "", "az_notes": ""}, {"dataset": "CM", "variable": "CMDTXT8", "label": "Medication Dictionary Text", "variable_type": "C", "length": "200", "core": "Supp", "role": "", "format_field": "", "key": "", "seq": "84", "origin": "", "dataset_level": "Corporate", "cdisc_notes": "", "az_notes": ""}, {"dataset": "CM", "variable": "CMDVCE", "label": "Device", "variable_type": "C", "length": "40", "core": "Supp", "role": "", "format_field": "", "key": "", "seq": "85", "origin": "CRF", "dataset_level": "Corporate", "cdisc_notes": "", "az_notes": ""}, {"dataset": "CM", "variable": "CMGROUP", "label": "Preferred Grouping Term", "variable_type": "C", "length": "200", "core": "Supp", "role": "", "format_field": "", "key": "", "seq": "86", "origin": "", "dataset_level": "Corporate", "cdisc_notes": "", "az_notes": ""}, {"dataset": "CM", "variable": "CMGROUP2", "label": "Preferred Grouping Term", "variable_type": "C", "length": "200", "core": "Supp", "role": "", "format_field": "", "key": "", "seq": "87", "origin": "", "dataset_level": "Corporate", "cdisc_notes": "", "az_notes": ""}, {"dataset": "CM", "variable": "CMGROUP3", "label": "Preferred Grouping Term", "variable_type": "C", "length": "200", "core": "Supp", "role": "", "format_field": "", "key": "", "seq": "88", "origin": "", "dataset_level": "Corporate", "cdisc_notes": "", "az_notes": ""}, {"dataset": "CM", "variable": "CMGROUP4", "label": "Preferred Grouping Term", "variable_type": "C", "length": "200", "core": "Supp", "role": "", "format_field": "", "key": "", "seq": "89", "origin": "", "dataset_level": "Corporate", "cdisc_notes": "", "az_notes": ""}, {"dataset": "CM", "variable": "CMGROUP5", "label": "Preferred Grouping Term", "variable_type": "C", "length": "200", "core": "Supp", "role": "", "format_field": "", "key": "", "seq": "90", "origin": "", "dataset_level": "Corporate", "cdisc_notes": "", "az_notes": ""}, {"dataset": "CM", "variable": "CMGROUP6", "label": "Preferred Grouping Term", "variable_type": "C", "length": "200", "core": "Supp", "role": "", "format_field": "", "key": "", "seq": "91", "origin": "", "dataset_level": "Corporate", "cdisc_notes": "", "az_notes": ""}, {"dataset": "CM", "variable": "CMGROUP7", "label": "Preferred Grouping Term", "variable_type": "C", "length": "200", "core": "Supp", "role": "", "format_field": "", "key": "", "seq": "92", "origin": "", "dataset_level": "Corporate", "cdisc_notes": "", "az_notes": ""}, {"dataset": "CM", "variable": "CMGROUP8", "label": "Preferred Grouping Term", "variable_type": "C", "length": "200", "core": "Supp", "role": "", "format_field": "", "key": "", "seq": "93", "origin": "", "dataset_level": "Corporate", "cdisc_notes": "", "az_notes": ""}, {"dataset": "CM", "variable": "CMINGRD1", "label": "Active Ingredient 1", "variable_type": "C", "length": "60", "core": "Supp", "role": "", "format_field": "", "key": "", "seq": "94", "origin": "CRF", "dataset_level": "Corporate", "cdisc_notes": "", "az_notes": ""}, {"dataset": "CM", "variable": "CMINGRD2", "label": "Active Ingredient 2", "variable_type": "C", "length": "60", "core": "Supp", "role": "", "format_field": "", "key": "", "seq": "95", "origin": "CRF", "dataset_level": "Corporate", "cdisc_notes": "", "az_notes": ""}, {"dataset": "CM", "variable": "CMINHTYP", "label": "Inhalator Type", "variable_type": "C", "length": "200", "core": "Supp", "role": "", "format_field": "", "key": "", "seq": "96", "origin": "CRF", "dataset_level": "Corporate", "cdisc_notes": "", "az_notes": ""}, {"dataset": "CM", "variable": "CMIPRLTY", "label": "Immediate Line Therapy Prior Study Treat", "variable_type": "C", "length": "6", "core": "Supp", "role": "", "format_field": "(NY)", "key": "", "seq": "97", "origin": "CRF", "dataset_level": "Corporate", "cdisc_notes": "", "az_notes": ""}, {"dataset": "CM", "variable": "CMLINCON", "label": "Description of Consolidation", "variable_type": "C", "length": "200", "core": "Supp", "role": "", "format_field": "", "key": "", "seq": "98", "origin": "", "dataset_level": "Corporate", "cdisc_notes": "", "az_notes": ""}, {"dataset": "CM", "variable": "CMLINDES", "label": "Description of the Line", "variable_type": "C", "length": "200", "core": "Supp", "role": "", "format_field": "", "key": "", "seq": "99", "origin": "", "dataset_level": "Corporate", "cdisc_notes": "", "az_notes": ""}, {"dataset": "CM", "variable": "CMLININD", "label": "Description of Induction", "variable_type": "C", "length": "200", "core": "Supp", "role": "", "format_field": "", "key": "", "seq": "100", "origin": "", "dataset_level": "Corporate", "cdisc_notes": "", "az_notes": ""}, {"dataset": "CM", "variable": "CMLINMAN", "label": "Description of Maintenance", "variable_type": "C", "length": "200", "core": "Supp", "role": "", "format_field": "", "key": "", "seq": "101", "origin": "", "dataset_level": "Corporate", "cdisc_notes": "", "az_notes": ""}, {"dataset": "CM", "variable": "CMMHNO", "label": "MH ID", "variable_type": "C", "length": "200", "core": "Supp", "role": "", "format_field": "", "key": "", "seq": "102", "origin": "CRF", "dataset_level": "Corporate", "cdisc_notes": "", "az_notes": ""}, {"dataset": "CM", "variable": "CMMULT", "label": "Multiple Drug", "variable_type": "C", "length": "20", "core": "Supp", "role": "", "format_field": "", "key": "", "seq": "103", "origin": "CRF", "dataset_level": "Corporate", "cdisc_notes": "", "az_notes": ""}, {"dataset": "CM", "variable": "CMPREF2", "label": "Preferred Name 2 (Seq2=1)", "variable_type": "C", "length": "200", "core": "Supp", "role": "", "format_field": "", "key": "", "seq": "104", "origin": "Assigned", "dataset_level": "Corporate", "cdisc_notes": "", "az_notes": ""}, {"dataset": "CM", "variable": "CMPREF3", "label": "Preferred Name 3 (Seq2=1)", "variable_type": "C", "length": "200", "core": "Supp", "role": "", "format_field": "", "key": "", "seq": "105", "origin": "Assigned", "dataset_level": "Corporate", "cdisc_notes": "", "az_notes": ""}, {"dataset": "CM", "variable": "CMPREF4", "label": "Preferred Name 4 (Seq2=1)", "variable_type": "C", "length": "200", "core": "Supp", "role": "", "format_field": "", "key": "", "seq": "106", "origin": "Assigned", "dataset_level": "Corporate", "cdisc_notes": "", "az_notes": ""}, {"dataset": "CM", "variable": "CMPREF5", "label": "Preferred Name 5 (Seq2=1)", "variable_type": "C", "length": "200", "core": "Supp", "role": "", "format_field": "", "key": "", "seq": "107", "origin": "Assigned", "dataset_level": "Corporate", "cdisc_notes": "", "az_notes": ""}, {"dataset": "CM", "variable": "CMPREF6", "label": "Preferred Name 6 (Seq2=1)", "variable_type": "C", "length": "200", "core": "Supp", "role": "", "format_field": "", "key": "", "seq": "108", "origin": "Assigned", "dataset_level": "Corporate", "cdisc_notes": "", "az_notes": ""}, {"dataset": "CM", "variable": "CMPREF7", "label": "Preferred Name 7 (Seq2=1)", "variable_type": "C", "length": "200", "core": "Supp", "role": "", "format_field": "", "key": "", "seq": "109", "origin": "Assigned", "dataset_level": "Corporate", "cdisc_notes": "", "az_notes": ""}, {"dataset": "CM", "variable": "CMPREF8", "label": "Preferred Name 8 (Seq2=1)", "variable_type": "C", "length": "200", "core": "Supp", "role": "", "format_field": "", "key": "", "seq": "110", "origin": "Assigned", "dataset_level": "Corporate", "cdisc_notes": "", "az_notes": ""}, {"dataset": "CM", "variable": "CMQTXT", "label": "Medication Question Full Text", "variable_type": "C", "length": "200", "core": "Supp", "role": "", "format_field": "", "key": "", "seq": "111", "origin": "Assigned", "dataset_level": "Corporate", "cdisc_notes": "", "az_notes": ""}, {"dataset": "CM", "variable": "CMREAS", "label": "Therapy Reason", "variable_type": "C", "length": "200", "core": "Supp", "role": "", "format_field": "", "key": "", "seq": "112", "origin": "CRF", "dataset_level": "Corporate", "cdisc_notes": "", "az_notes": ""}, {"dataset": "CM", "variable": "CMREEOEN", "label": "Therapy Reason, EoE Details", "variable_type": "C", "length": "40", "core": "Supp", "role": "", "format_field": "(TREEOEN)", "key": "", "seq": "113", "origin": "CRF", "dataset_level": "Corporate", "cdisc_notes": "", "az_notes": ""}, {"dataset": "CM", "variable": "CMREEOEY", "label": "Therapy Reason, EoE Details/Other", "variable_type": "C", "length": "200", "core": "Supp", "role": "", "format_field": "", "key": "", "seq": "114", "origin": "CRF", "dataset_level": "Corporate", "cdisc_notes": "", "az_notes": ""}, {"dataset": "CM", "variable": "CMROUTEO", "label": "CM Route Other", "variable_type": "C", "length": "200", "core": "Supp", "role": "", "format_field": "", "key": "", "seq": "115", "origin": "", "dataset_level": "Corporate", "cdisc_notes": "", "az_notes": ""}, {"dataset": "CM", "variable": "CMRSLOC", "label": "Radiotherapy Site or Region", "variable_type": "C", "length": "200", "core": "Supp", "role": "", "format_field": "", "key": "", "seq": "116", "origin": "CRF", "dataset_level": "Corporate", "cdisc_notes": "", "az_notes": ""}, {"dataset": "CM", "variable": "CMSCATO", "label": "Subcategory for Medication Other", "variable_type": "C", "length": "200", "core": "Supp", "role": "", "format_field": "", "key": "", "seq": "117", "origin": "CRF", "dataset_level": "Corporate", "cdisc_notes": "", "az_notes": ""}, {"dataset": "CM", "variable": "CMTREEOE", "label": "Eosinophilic Esophagitis/Other", "variable_type": "C", "length": "200", "core": "Supp", "role": "", "format_field": "", "key": "", "seq": "118", "origin": "CRF", "dataset_level": "Corporate", "cdisc_notes": "", "az_notes": ""}, {"dataset": "CM", "variable": "CMYN", "label": "Any Cancer Therapy", "variable_type": "C", "length": "6", "core": "Supp", "role": "", "format_field": "(NY)", "key": "", "seq": "119", "origin": "CRF", "dataset_level": "Corporate", "cdisc_notes": "", "az_notes": ""}, {"dataset": "CM", "variable": "CMY